{
  "type": "transaction",
  "entry": [
    {
      "resource": {
        "resourceType": "Patient",
        "id": "888",
        "meta": {
          "lastUpdated": "2020-07-07T13:26:22.0314215+00:00",
          "profile": [
            "http://hl7.org/fhir/us/carin-bb/StructureDefinition/C4BB-Patient|2.0.0"
          ]
        },
        "language": "en-US",
        "text": {
          "status": "generated",
          "div": "<div xmlns=\"http://www.w3.org/1999/xhtml\" xml:lang=\"en-US\" lang=\"en-US\"><p style=\"border: 1px #661aff solid; background-color: #e6e6ff; padding: 10px;\"><b>Johnny Smith </b> male, DoB: 1986-01-01 ( Member Number: 1234-234-1243-12345678901)</p><hr/><table class=\"grid\"><tr><td style=\"background-color: #f3f5da\" title=\"Record is active\">Active:</td><td>true</td><td style=\"background-color: #f3f5da\" title=\"Known Marital status of Patient\">Marital Status:</td><td colspan=\"3\"><span title=\"Codes: {http://terminology.hl7.org/CodeSystem/v3-NullFlavor UNK}\">unknown</span></td></tr><tr><td style=\"background-color: #f3f5da\" title=\"Other Ids (see the one above)\">Other Id:</td><td colspan=\"3\">Unique Member ID: 1234-234-1243-12345678901u</td></tr><tr><td style=\"background-color: #f3f5da\" title=\"Ways to contact the Patient\">Contact Details:</td><td colspan=\"3\"><ul><li>ph: (301)666-1212</li><li>123 Main Street Pittsburgh PA 12519 </li></ul></td></tr></table></div>"
        },
        "identifier": [
          {
            "type": {
              "coding": [
                {
                  "system": "http://terminology.hl7.org/CodeSystem/v2-0203",
                  "code": "MB"
                }
              ]
            },
            "system": "http://inferno.healthit.gov/reference-server/r4/uniquememberidentifier",
            "value": "1234-234-1243-12345678901"
          },
          {
            "type": {
              "coding": [
                {
                  "system": "http://hl7.org/fhir/us/carin-bb/CodeSystem/C4BBIdentifierType",
                  "code": "um"
                }
              ]
            },
            "system": "https://www.xxxhealthplan.com/fhir/uniquememberidentifier",
            "value": "1234-234-1243-12345678901u"
          }
        ],
        "active": true,
        "name": [
          {
            "family": "Smith",
            "given": [
              "Johnny"
            ]
          }
        ],
        "telecom": [
          {
            "system": "phone",
            "value": "(301)666-1212",
            "rank": 2,
            "use": "home"
          }
        ],
        "communication" : [
          {
            "language" : {
              "coding" : [
                {
                  "system" : "urn:ietf:bcp:47",
                  "code" : "en"
                }
              ],
              "text" : "English"
            },
            "preferred" : true
          }
        ],
        "gender": "male",
        "deceasedBoolean": false,
        "birthDate": "1986-01-01",
        "address": [
          {
            "type": "physical",
            "line": [
              "123 Main Street"
            ],
            "city": "Pittsburgh",
            "state": "PA",
            "postalCode": "12519",
            "country": "USA"
          }
        ],
        "maritalStatus": {
          "coding": [
            {
              "system": "http://terminology.hl7.org/CodeSystem/v3-NullFlavor",
              "code": "UNK"
            }
          ]
        }
      },
      "request": {
        "method": "PUT",
        "url": "Patient/888"
      }
    },
    {
      "resource": {
        "resourceType": "Coverage",
        "id": "c4bb-Coverage",
        "meta": {
          "lastUpdated": "2020-10-30T09:48:01.8462752-04:00",
          "profile": [
            "http://hl7.org/fhir/us/carin-bb/StructureDefinition/C4BB-Coverage|2.0.0"
          ]
        },
        "language": "en-US",
        "text": {
          "status": "generated",
          "div": "\u003Cdiv xmlns=\"http://www.w3.org/1999/xhtml\" xml:lang=\"en-US\" lang=\"en-US\"\u003E\u003Cp class=\"res-header-id\"\u003E\u003Cb\u003EGenerated Narrative: Coverage c4bb-Coverage\u003C/b\u003E\u003C/p\u003E\u003Ca name=\"c4bb-Coverage\"\u003E \u003C/a\u003E\u003Ca name=\"hcc4bb-Coverage\"\u003E \u003C/a\u003E\u003Ca name=\"c4bb-Coverage-en-US\"\u003E \u003C/a\u003E\u003Cdiv style=\"display: inline-block; background-color: #d9e0e7; padding: 6px; margin: 4px; border: 1px solid #8da1b4; border-radius: 5px; line-height: 60%\"\u003E\u003Cp style=\"margin-bottom: 0px\"\u003ELast updated: 2020-10-30 09:48:01-0400; Language: en-US\u003C/p\u003E\u003Cp style=\"margin-bottom: 0px\"\u003EProfile: \u003Ca href=\"StructureDefinition-C4BB-Coverage.html\"\u003EC4BB Coverageversion: {0}2.0.0)\u003C/a\u003E\u003C/p\u003E\u003C/div\u003E\u003Cp\u003E\u003Cb\u003Eidentifier\u003C/b\u003E: An identifier for the insured of an insurance policy (this insured always has a subscriber), usually assigned by the insurance carrier./88800933501\u003C/p\u003E\u003Cp\u003E\u003Cb\u003Estatus\u003C/b\u003E: Active\u003C/p\u003E\u003Cp\u003E\u003Cb\u003EpolicyHolder\u003C/b\u003E: \u003Ca href=\"Patient-888.html\"\u003EJohnny Smith  Male, DoB: 1986-01-01 ( Member Number)\u003C/a\u003E\u003C/p\u003E\u003Cp\u003E\u003Cb\u003Esubscriber\u003C/b\u003E: \u003Ca href=\"Patient-888.html\"\u003EJohnny Smith  Male, DoB: 1986-01-01 ( Member Number)\u003C/a\u003E\u003C/p\u003E\u003Cp\u003E\u003Cb\u003EsubscriberId\u003C/b\u003E: 888009335\u003C/p\u003E\u003Cp\u003E\u003Cb\u003Ebeneficiary\u003C/b\u003E: \u003Ca href=\"Patient-888.html\"\u003EJohnny Smith  Male, DoB: 1986-01-01 ( Member Number)\u003C/a\u003E\u003C/p\u003E\u003Cp\u003E\u003Cb\u003Edependent\u003C/b\u003E: 01\u003C/p\u003E\u003Cp\u003E\u003Cb\u003Erelationship\u003C/b\u003E: \u003Cspan title=\"Codes:{http://terminology.hl7.org/CodeSystem/subscriber-relationship self}\"\u003ESelf\u003C/span\u003E\u003C/p\u003E\u003Cp\u003E\u003Cb\u003Eperiod\u003C/b\u003E: 2020-01-01 --&gt; (ongoing)\u003C/p\u003E\u003Cp\u003E\u003Cb\u003Epayor\u003C/b\u003E: \u003Ca href=\"Organization-c4bb-Organization.html\"\u003EUPMC Health Plan\u003C/a\u003E\u003C/p\u003E\u003Cblockquote\u003E\u003Cp\u003E\u003Cb\u003Eclass\u003C/b\u003E\u003C/p\u003E\u003Cp\u003E\u003Cb\u003Etype\u003C/b\u003E: \u003Cspan title=\"Codes:{http://terminology.hl7.org/CodeSystem/coverage-class group}\"\u003EAn employee group\u003C/span\u003E\u003C/p\u003E\u003Cp\u003E\u003Cb\u003Evalue\u003C/b\u003E: MCHMO1\u003C/p\u003E\u003Cp\u003E\u003Cb\u003Ename\u003C/b\u003E: MEDICARE HMO PLAN\u003C/p\u003E\u003C/blockquote\u003E\u003Cblockquote\u003E\u003Cp\u003E\u003Cb\u003Eclass\u003C/b\u003E\u003C/p\u003E\u003Cp\u003E\u003Cb\u003Etype\u003C/b\u003E: \u003Cspan title=\"Codes:{http://terminology.hl7.org/CodeSystem/coverage-class plan}\"\u003EA specific suite of benefits.\u003C/span\u003E\u003C/p\u003E\u003Cp\u003E\u003Cb\u003Evalue\u003C/b\u003E: GR5\u003C/p\u003E\u003Cp\u003E\u003Cb\u003Ename\u003C/b\u003E: GR5-HMO DEDUCTIBLE\u003C/p\u003E\u003C/blockquote\u003E\u003Cp\u003E\u003Cb\u003Enetwork\u003C/b\u003E: GR5-HMO DEDUCTIBLE\u003C/p\u003E\u003C/div\u003E"
        },
        "identifier": [
          {
            "type": {
              "coding": [
                {
                  "system": "http://terminology.hl7.org/CodeSystem/v2-0203",
                  "code": "MB",
                  "display": "Member Number"
                }
              ],
              "text": "An identifier for the insured of an insurance policy (this insured always has a subscriber), usually assigned by the insurance carrier."
            },
            "system": "https://www.upmchealthplan.com/fhir/memberidentifier",
            "value": "88800933501",
            "assigner": {
              "reference": "Organization/c4bb-Organization",
              "display": "UPMC Health Plan"
            }
          }
        ],
        "status": "active",
        "type" : {
          "coding" : [
            {
              "system" : "http://terminology.hl7.org/CodeSystem/v3-ActCode",
              "code" : "HIP"
            }
          ],
          "text" : "health insurance plan policy"
        },
        "policyHolder": {
          "reference": "Patient/888"
        },
        "subscriber": {
          "reference": "Patient/888"
        },
        "subscriberId": "888009335",
        "beneficiary": {
          "reference": "Patient/888"
        },
        "dependent": "01",
        "relationship": {
          "coding": [
            {
              "system": "http://terminology.hl7.org/CodeSystem/subscriber-relationship",
              "code": "self"
            }
          ],
          "text": "Self"
        },
        "period": {
          "start": "2020-01-01"
        },
        "payor": [
          {
            "reference": "Organization/c4bb-Organization"
          }
        ],
        "class": [
          {
            "type": {
              "coding": [
                {
                  "system": "http://terminology.hl7.org/CodeSystem/coverage-class",
                  "code": "group",
                  "display": "Group"
                }
              ],
              "text": "An employee group"
            },
            "value": "MCHMO1",
            "name": "MEDICARE HMO PLAN"
          },
          {
            "type": {
              "coding": [
                {
                  "system": "http://terminology.hl7.org/CodeSystem/coverage-class",
                  "code": "plan",
                  "display": "Plan"
                }
              ],
              "text": "A specific suite of benefits."
            },
            "value": "GR5",
            "name": "GR5-HMO DEDUCTIBLE"
          }
        ],
        "network": "GR5-HMO DEDUCTIBLE"
      },
      "request": {
        "method": "PUT",
        "url": "Coverage/c4bb-Coverage"
      }
    },
    {
      "resource": {
        "resourceType" : "Organization",
        "id" : "c4bb-Organization",
        "meta" : {
          "lastUpdated" : "2020-05-04T03:02:01-04:00",
          "profile" : ["http://hl7.org/fhir/us/carin-bb/StructureDefinition/C4BB-Organization|2.0.0"]
        },
        "text" : {
          "status" : "generated",
          "div" : "<div xmlns=\"http://www.w3.org/1999/xhtml\"><p class=\"res-header-id\"><b>Generated Narrative: Organization Providerc4bb-Organization</b></p><a name=\"Providerc4bb-Organization\"> </a><a name=\"hcProviderc4bb-Organization\"> </a><a name=\"Providerc4bb-Organization-en-US\"> </a><div style=\"display: inline-block; background-color: #d9e0e7; padding: 6px; margin: 4px; border: 1px solid #8da1b4; border-radius: 5px; line-height: 60%\"><p style=\"margin-bottom: 0px\">Last updated: 2020-05-04 03:02:01-0400</p><p style=\"margin-bottom: 0px\">Profile: <a href=\"StructureDefinition-C4BB-Organization.html\">C4BB Organizationversion: {0}2.0.0)</a></p></div><p><b>identifier</b>: National Provider Identifier/9941339100</p><p><b>active</b>: true</p><p><b>name</b>: Orange Medical Group</p><p><b>address</b>: Attn: Orange Medical Group Pittsburgh PA 15222 USA </p><h3>Contacts</h3><table class=\"grid\"><tr><td style=\"display: none\">-</td><td><b>Telecom</b></td></tr><tr><td style=\"display: none\">*</td><td>ph: 555-555-5510(Work)</td></tr></table></div>"
        },
        "identifier" : [{
          "type" : {
            "coding" : [{
              "system" : "http://terminology.hl7.org/CodeSystem/v2-0203",
              "code" : "NPI",
              "display" : "National Provider Identifier"
            }],
            "text" : "National Provider Identifier"
          },
          "system" : "http://hl7.org/fhir/sid/us-npi",
          "value" : "9941339100"
        }, 
        {
          "type" : {
            "coding" : [{
              "system" : "http://terminology.hl7.org/CodeSystem/v2-0203",
              "code" : "TAX",
              "display" : "Tax ID number"
            }],
            "text" : "Tax ID number"
          },
          "system" : "urn:oid:2.16.840.1.113883.4.4",
          "value" : "060101507"
        },
        {
          "type" : {
            "coding" : [{
              "system" : "http://hl7.org/fhir/us/carin-bb/CodeSystem/C4BBIdentifierType",
              "code" : "payerid",
              "display" : "Payer ID"
            }],
            "text" : "Payer ID"
          }
        },
        {
          "type" : {
            "coding" : [{
              "system" : "http://hl7.org/fhir/us/carin-bb/CodeSystem/C4BBIdentifierType",
              "code" : "naiccode",
              "display" : "NAIC Code"
            }],
            "text" : "NAIC Code"
          },
          "system" : "urn:oid:2.16.840.1.113883.6.300",
          "value" : "13703"
        }],
        "active" : true,
        "name" : "Orange Medical Group",
        "address" : [{
          "line" : ["Attn: Orange Medical Group"],
          "city" : "Pittsburgh",
          "state" : "PA",
          "postalCode" : "15222",
          "country" : "USA"
        }],
        "telecom": [
          {
            "system": "phone",
            "value": "(555)555-5510",
            "rank": 1
          }
        ]
      },
      "request": {
        "method": "PUT",
        "url": "Organization/c4bb-Organization"
      }
    },
    {
      "resource": {
        "resourceType" : "Practitioner",
        "id" : "c4bb-Practitioner",
        "meta" : {
          "lastUpdated" : "2020-05-04T03:02:01-04:00",
          "profile" : ["http://hl7.org/fhir/us/carin-bb/StructureDefinition/C4BB-Practitioner|2.0.0"]
        },
        "text" : {
          "status" : "generated",
          "div" : "<div xmlns=\"http://www.w3.org/1999/xhtml\"><p class=\"res-header-id\"><b>Generated Narrative: Practitioner c4bb-Practitioner</b></p><a name=\"c4bb-Practitioner\"> </a><a name=\"hcc4bb-Practitioner\"> </a><a name=\"c4bb-Practitioner-en-US\"> </a><div style=\"display: inline-block; background-color: #d9e0e7; padding: 6px; margin: 4px; border: 1px solid #8da1b4; border-radius: 5px; line-height: 60%\"><p style=\"margin-bottom: 0px\">Last updated: 2020-05-04 03:02:01-0400</p><p style=\"margin-bottom: 0px\">Profile: <a href=\"StructureDefinition-C4BB-Practitioner.html\">C4BB Practitionerversion: {0}2.0.0)</a></p></div><p><b>identifier</b>: National Provider Identifier/9941339100</p><p><b>active</b>: true</p><p><b>name</b>: John Smith </p></div>"
        },
        "identifier" : [{
          "type" : {
            "coding" : [{
              "system" : "http://terminology.hl7.org/CodeSystem/v2-0203",
              "code" : "NPI",
              "display" : "National Provider Identifier"
            }],
            "text" : "National Provider Identifier"
          },
          "system" : "http://hl7.org/fhir/sid/us-npi",
          "value" : "9941339100"
        },
        {
          "type" : {
            "coding" : [{
              "system" : "http://terminology.hl7.org/CodeSystem/v2-0203",
              "code" : "TAX",
              "display" : "Tax ID number"
            }],
            "text" : "Tax ID number"
          },
          "system" : "urn:oid:2.16.840.1.113883.4.4",
          "value" : "060101507"
        }],
        "active" : true,
        "name" : [{
          "family" : "Smith",
          "given" : ["John"],
          "prefix" : ["Dr."]
        }],
        "address" : [{
          "line" : ["Attn: Orange Medical Group"],
          "city" : "Pittsburgh",
          "state" : "PA",
          "postalCode" : "15222",
          "country" : "USA"
        }],
        "telecom": [
          {
            "system": "phone",
            "value": "(555)555-5510",
            "rank": 1
          }
        ]
      },
      "request": {
        "method": "PUT",
        "url": "Practitioner/c4bb-Practitioner"
      }
    },
    {
      "resource": {
        "resourceType" : "RelatedPerson",
        "id" : "c4bb-RelatedPerson",
        "meta" : {
          "lastUpdated" : "2020-05-04T03:02:01-04:00",
          "profile" : ["http://hl7.org/fhir/us/carin-bb/StructureDefinition/C4BB-RelatedPerson|2.0.0"]
        },
        "text" : {
          "status" : "generated",
          "div" : "<div xmlns=\"http://www.w3.org/1999/xhtml\"><p class=\"res-header-id\"><b>Generated Narrative: RelatedPerson c4bb-RelatedPerson</b></p><a name=\"c4bb-RelatedPerson\"> </a><a name=\"hcc4bb-RelatedPerson\"> </a><a name=\"c4bb-RelatedPerson-en-US\"> </a><div style=\"display: inline-block; background-color: #d9e0e7; padding: 6px; margin: 4px; border: 1px solid #8da1b4; border-radius: 5px; line-height: 60%\"><p style=\"margin-bottom: 0px\">Last updated: 2020-05-04 03:02:01-0400</p><p style=\"margin-bottom: 0px\">Profile: <a href=\"StructureDefinition-C4BB-RelatedPerson.html\">C4BB RelatedPersonversion: {0}2.0.0)</a></p></div><p><b>active</b>: true</p><p><b>patient</b>: <a href=\"Patient-888.html\">Johnny Smith  Male, DoB: 1986-01-01 ( Member Number)</a></p><p><b>relationship</b>: <span title=\"Codes:{http://terminology.hl7.org/CodeSystem/v3-RoleCode MTH}\">mother</span></p><p><b>name</b>: Mary Jones </p><p><b>telecom</b>: ph: (301)666-1212</p><p><b>address</b>: 123 Main Street Pittsburgh PA 12519 </p></div>"
        },
        "active" : true,
        "patient" : {
          "reference" : "Patient/888"
        },
        "relationship" : [{
          "coding" : [{
            "system" : "http://terminology.hl7.org/CodeSystem/v3-RoleCode",
            "code" : "MTH"
          }]
        }],
        "name" : [{
          "family" : "Jones",
          "given" : ["Mary"]
        }],
        "telecom" : [{
          "system" : "phone",
          "value" : "(301)666-1212",
          "rank" : 2
        }],
        "address" : [{
          "type" : "physical",
          "line" : ["123 Main Street"],
          "city" : "Pittsburgh",
          "state" : "PA",
          "postalCode" : "12519"
        }]
      },
      "request": {
        "method": "PUT",
        "url": "RelatedPerson/c4bb-RelatedPerson"
      }
    },
    {
      "resource": {
        "resourceType" : "ExplanationOfBenefit",
        "id" : "c4bb-EOBInpatient",
        "meta" : {
          "lastUpdated" : "2019-12-12T09:14:11+00:00",
          "profile" : ["http://hl7.org/fhir/us/carin-bb/StructureDefinition/C4BB-ExplanationOfBenefit-Inpatient-Institutional|2.0.0"]
        },
        "language" : "en-US",
        "text" : {
          "status" : "generated",
          "div" : "<div xmlns=\"http://www.w3.org/1999/xhtml\" xml:lang=\"en-US\" lang=\"en-US\"><p class=\"res-header-id\"><b>Generated Narrative: ExplanationOfBenefit c4bb-EOBInpatient</b></p><a name=\"c4bb-EOBInpatient\"> </a><a name=\"hcc4bb-EOBInpatient\"> </a><a name=\"c4bb-EOBInpatient-en-US\"> </a><div style=\"display: inline-block; background-color: #d9e0e7; padding: 6px; margin: 4px; border: 1px solid #8da1b4; border-radius: 5px; line-height: 60%\"><p style=\"margin-bottom: 0px\">Last updated: 2019-12-12 09:14:11+0000; Language: en-US</p><p style=\"margin-bottom: 0px\">Profile: <a href=\"StructureDefinition-c4bb-EOBInpatient-Inpatient-Institutional-Basis.html\">C4BB ExplanationOfBenefit Inpatient Institutional Basisversion: {0}2.0.0)</a></p></div><p><b>identifier</b>: Unique Claim ID/AW123412341234123412341234123412</p><p><b>status</b>: Active</p><p><b>type</b>: <span title=\"Codes:{http://terminology.hl7.org/CodeSystem/claim-type institutional}\">Institutional</span></p><p><b>subType</b>: <span title=\"Codes:{http://hl7.org/fhir/us/carin-bb/CodeSystem/C4BBInstitutionalClaimSubType inpatient}\">Inpatient</span></p><p><b>use</b>: Claim</p><p><b>patient</b>: <a href=\"Patient-888.html\">Member 01 Test  Male, DoB: 1943-01-01 ( An identifier for the insured of an insurance policy (this insured always has a subscriber), usually assigned by the insurance carrier.:\u00a088800933501)</a></p><p><b>billablePeriod</b>: 2019-01-01 --&gt; 2019-10-31</p><p><b>created</b>: 2019-11-02 00:00:00+0000</p><p><b>insurer</b>: <a href=\"Organization-c4bb-Organization.html\">XXX Health Plan</a></p><p><b>provider</b>: <a href=\"Organization-Providerc4bb-Organization.html\">XXX Health Plan</a></p><p><b>outcome</b>: Partial Processing</p><blockquote><p><b>supportingInfo</b></p><p><b>sequence</b>: 2</p><p><b>category</b>: <span title=\"Codes:{http://hl7.org/fhir/us/carin-bb/CodeSystem/C4BBSupportingInfoType admissionperiod}\">Admission Period</span></p><p><b>timing</b>: 2011-05-23 --&gt; 2011-05-25</p></blockquote><blockquote><p><b>supportingInfo</b></p><p><b>sequence</b>: 3</p><p><b>category</b>: <span title=\"Codes:{http://hl7.org/fhir/us/carin-bb/CodeSystem/C4BBSupportingInfoType clmrecvddate}\">Claim Received Date</span></p><p><b>timing</b>: 2011-05-30</p></blockquote><blockquote><p><b>supportingInfo</b></p><p><b>sequence</b>: 4</p><p><b>category</b>: <span title=\"Codes:{http://hl7.org/fhir/us/carin-bb/CodeSystem/C4BBSupportingInfoType typeofbill}\">Type of Bill</span></p><p><b>code</b>: <span title=\"Codes:{https://www.nubc.org/CodeSystem/TypeOfBill Dummy}\">Dummy</span></p></blockquote><blockquote><p><b>supportingInfo</b></p><p><b>sequence</b>: 5</p><p><b>category</b>: <span title=\"Codes:{http://hl7.org/fhir/us/carin-bb/CodeSystem/C4BBSupportingInfoType pointoforigin}\">Point Of Origin</span></p><p><b>code</b>: <span title=\"Codes:{https://www.nubc.org/CodeSystem/PointOfOrigin Dummy}\">Dummy</span></p></blockquote><blockquote><p><b>supportingInfo</b></p><p><b>sequence</b>: 6</p><p><b>category</b>: <span title=\"Codes:{http://hl7.org/fhir/us/carin-bb/CodeSystem/C4BBSupportingInfoType admtype}\">Admission Type</span></p><p><b>code</b>: <span title=\"Codes:{https://www.nubc.org/CodeSystem/PriorityTypeOfAdmitOrVisit Dummy}\">Dummy</span></p></blockquote><blockquote><p><b>supportingInfo</b></p><p><b>sequence</b>: 7</p><p><b>category</b>: <span title=\"Codes:{http://hl7.org/fhir/us/carin-bb/CodeSystem/C4BBSupportingInfoType discharge-status}\">Discharge Status</span></p><p><b>code</b>: <span title=\"Codes:{https://www.nubc.org/CodeSystem/PatDischargeStatus 11}\">11</span></p></blockquote><blockquote><p><b>supportingInfo</b></p><p><b>sequence</b>: 8</p><p><b>category</b>: <span title=\"Codes:{http://hl7.org/fhir/us/carin-bb/CodeSystem/C4BBSupportingInfoType medicalrecordnumber}\">Medical Record Number</span></p><p><b>value</b>: 1234-234-1243-12345678901m</p></blockquote><blockquote><p><b>supportingInfo</b></p><p><b>sequence</b>: 9</p><p><b>category</b>: <span title=\"Codes:{http://hl7.org/fhir/us/carin-bb/CodeSystem/C4BBSupportingInfoType patientaccountnumber}\">Patient Account Number</span></p><p><b>value</b>: 1234-234-1243-12345678901a</p></blockquote><h3>Diagnoses</h3><table class=\"grid\"><tr><td style=\"display: none\">-</td><td><b>Sequence</b></td><td><b>Diagnosis[x]</b></td><td><b>Type</b></td></tr><tr><td style=\"display: none\">*</td><td>1</td><td><span title=\"Codes:{http://hl7.org/fhir/sid/icd-10-cm S06.0X1A}\">Concussion w LOC of 30 minutes or less, init</span></td><td><span title=\"Codes:{http://terminology.hl7.org/CodeSystem/ex-diagnosistype principal}\">Principal Diagnosis</span></td></tr></table><h3>Insurances</h3><table class=\"grid\"><tr><td style=\"display: none\">-</td><td><b>Focal</b></td><td><b>Coverage</b></td></tr><tr><td style=\"display: none\">*</td><td>true</td><td><a href=\"Coverage-c4bb-Coverage.html\">Coverage: identifier = Member Number; status = active; type = health insurance plan policy; subscriberId = 12345678901; dependent = 01; relationship = Self; period = 2019-01-01 --&gt; 2019-10-31; network = XYZ123-UPMC CONSUMER ADVA</a></td></tr></table><h3>Items</h3><table class=\"grid\"><tr><td style=\"display: none\">-</td><td><b>Sequence</b></td><td><b>Revenue</b></td><td><b>ProductOrService</b></td><td><b>Serviced[x]</b></td></tr><tr><td style=\"display: none\">*</td><td>1</td><td><span title=\"Codes:{https://www.nubc.org/CodeSystem/RevenueCodes Dummy}\">Dummy</span></td><td><span title=\"Codes:{http://terminology.hl7.org/CodeSystem/data-absent-reason not-applicable}\">Not Applicable</span></td><td>2019-11-02</td></tr></table><h3>Adjudications</h3><table class=\"grid\"><tr><td style=\"display: none\">-</td><td><b>Category</b></td><td><b>Reason</b></td></tr><tr><td style=\"display: none\">*</td><td><span title=\"Codes:{http://hl7.org/fhir/us/carin-bb/CodeSystem/C4BBAdjudicationDiscriminator benefitpaymentstatus}\">Benefit Payment Status</span></td><td><span title=\"Codes:{http://hl7.org/fhir/us/carin-bb/CodeSystem/C4BBPayerAdjudicationStatus innetwork}\">In Network</span></td></tr><tr><td style=\"display: none\">*</td><td><span title=\"Codes:{http://hl7.org/fhir/us/carin-bb/CodeSystem/C4BBAdjudicationDiscriminator billingnetworkstatus}\">Billing Network Status</span></td><td><span title=\"Codes:{http://hl7.org/fhir/us/carin-bb/CodeSystem/C4BBPayerAdjudicationStatus innetwork}\">In Network</span></td></tr></table></div>"
        },
        "identifier" : [{
          "type" : {
            "coding" : [{
              "system" : "http://hl7.org/fhir/us/carin-bb/CodeSystem/C4BBIdentifierType",
              "code" : "uc"
            }]
          },
          "system" : "https://www.xxxplan.com/fhir/EOBIdentifier",
          "value" : "AW123412341234123412341234123412"
        }],
        "status" : "active",
        "type" : {
          "coding" : [{
            "system" : "http://terminology.hl7.org/CodeSystem/claim-type",
            "code" : "institutional"
          }],
          "text" : "Institutional"
        },
        "subType" : {
          "coding" : [{
            "system" : "http://hl7.org/fhir/us/carin-bb/CodeSystem/C4BBInstitutionalClaimSubType",
            "code" : "inpatient"
          }],
          "text" : "Inpatient"
        },
        "use" : "claim",
        "patient" : {
          "reference" : "Patient/888"
        },
        "billablePeriod" : {
          "start" : "2019-01-01",
          "end" : "2019-10-31"
        },
        "created" : "2019-11-02T00:00:00+00:00",
        "insurer" : {
          "reference" : "Organization/c4bb-Organization",
          "display" : "XXX Health Plan"
        },
        "provider" : {
          "reference" : "Organization/c4bb-Organization",
          "display" : "XXX Health Plan"
        },
        "related": [{
          "relationship": {
            "coding" : [{
              "system" : "http://terminology.hl7.org/CodeSystem/ex-relatedclaimrelationship",
              "code" : "prior"
            }]
          },
          "reference": {
            "type" : {
              "coding" : [{
                "system" : "http://hl7.org/fhir/us/carin-bb/CodeSystem/C4BBIdentifierType",
                "code" : "uc"
              }]
            },
            "system" : "https://www.xxxplan.com/fhir/EOBIdentifier",
            "value" : "AW123412341234123412341234123413"
          }
        }],
        "payee": {
          "type" : {
            "coding" : [{
              "system" : "http://terminology.hl7.org/CodeSystem/payeetype",
              "code" : "other"
            }]
          },
          "party": {
            "reference" : "RelatedPerson/c4bb-RelatedPerson",
            "display" : "Mary Jones"
          }
        },
        "outcome" : "partial",
        "careTeam" : [
          {
            "sequence" : 1,
            "provider" : {
              "reference" : "Practitioner/c4bb-Practitioner"
            },
            "role" : {
              "coding" : [
                {
                  "system" : "http://terminology.hl7.org/CodeSystem/claimcareteamrole",
                  "code" : "primary",
                  "display" : "Primary provider"
                }
              ],
              "text" : "The primary care provider"
            }
        }],
        "supportingInfo" : [{
          "sequence" : 2,
          "category" : {
            "coding" : [{
              "system" : "http://hl7.org/fhir/us/carin-bb/CodeSystem/C4BBSupportingInfoType",
              "code" : "admissionperiod"
            }]
          },
          "timingPeriod" : {
            "start" : "2011-05-23",
            "end" : "2011-05-25"
          }
        },
        {
          "sequence" : 3,
          "category" : {
            "coding" : [{
              "system" : "http://hl7.org/fhir/us/carin-bb/CodeSystem/C4BBSupportingInfoType",
              "code" : "clmrecvddate"
            }]
          },
          "timingDate" : "2011-05-30"
        },
        {
          "sequence" : 4,
          "category" : {
            "coding" : [{
              "system" : "http://hl7.org/fhir/us/carin-bb/CodeSystem/C4BBSupportingInfoType",
              "code" : "typeofbill"
            }]
          },
          "code" : {
            "coding" : [{
              "system" : "https://www.nubc.org/CodeSystem/TypeOfBill",
              "code" : "Dummy"
            }]
          }
        },
        {
          "sequence" : 5,
          "category" : {
            "coding" : [{
              "system" : "http://hl7.org/fhir/us/carin-bb/CodeSystem/C4BBSupportingInfoType",
              "code" : "pointoforigin"
            }]
          },
          "code" : {
            "coding" : [{
              "system" : "https://www.nubc.org/CodeSystem/PointOfOrigin",
              "code" : "Dummy"
            }]
          }
        },
        {
          "sequence" : 6,
          "category" : {
            "coding" : [{
              "system" : "http://hl7.org/fhir/us/carin-bb/CodeSystem/C4BBSupportingInfoType",
              "code" : "admtype"
            }]
          },
          "code" : {
            "coding" : [{
              "system" : "https://www.nubc.org/CodeSystem/PriorityTypeOfAdmitOrVisit",
              "code" : "Dummy"
            }]
          }
        },
        {
          "sequence" : 7,
          "category" : {
            "coding" : [{
              "system" : "http://hl7.org/fhir/us/carin-bb/CodeSystem/C4BBSupportingInfoType",
              "code" : "discharge-status"
            }]
          },
          "code" : {
            "coding" : [{
              "system" : "https://www.nubc.org/CodeSystem/PatDischargeStatus",
              "code" : "11"
            }]
          }
        },
        {
          "sequence" : 8,
          "category" : {
            "coding" : [{
              "system" : "http://hl7.org/fhir/us/carin-bb/CodeSystem/C4BBSupportingInfoType",
              "code" : "drg"
            }]
          },
          "code" : {
            "coding" : [{
              "system" : "https://www.cms.gov/Medicare/Medicare-Fee-for-Service-Payment/AcuteInpatientPPS/MS-DRG-Classifications-and-Software",
              "code" : "Dummy"
            }]
          }
        },
        {
          "sequence" : 9,
          "category" : {
            "coding" : [{
              "system" : "http://hl7.org/fhir/us/carin-bb/CodeSystem/C4BBSupportingInfoType",
              "code" : "medicalrecordnumber"
            }]
          },
          "valueString" : "1234-234-1243-12345678901m"
        },
        {
          "sequence" : 10,
          "category" : {
            "coding" : [{
              "system" : "http://hl7.org/fhir/us/carin-bb/CodeSystem/C4BBSupportingInfoType",
              "code" : "patientaccountnumber"
            }]
          },
          "valueString" : "1234-234-1243-12345678901a"
        }],
        "diagnosis" : [{
          "sequence" : 1,
          "diagnosisCodeableConcept" : {
            "coding" : [{
              "system" : "http://hl7.org/fhir/sid/icd-10-cm",
              "code" : "S06.0X1A"
            }]
          },
          "type" : [{
            "coding" : [{
              "system" : "http://terminology.hl7.org/CodeSystem/ex-diagnosistype",
              "code" : "principal"
            }]
          }],
          "onAdmission": {
            "coding" : [{
              "system" : "https://www.nubc.org/CodeSystem/PresentOnAdmissionIndicator",
              "code" : "Y"
            }]
          }
        }],
        "procedure" : [
          {
            "sequence" : 1,
            "type" : [{
              "coding" : [
                {
                  "system" : "http://hl7.org/fhir/us/carin-bb/CodeSystem/C4BBClaimProcedureType",
                  "code" : "principal",
                  "display" : "Principal"
                }
              ],
              "text" : "The Principal Procedure is based on the relation of the procedure to the Principal Diagnosis"
            }],
            "date" : "2017-05-23",
            "procedureCodeableConcept" : {
              "coding" : [
                {
                  "system" : "http://www.cms.gov/Medicare/Coding/ICD10",
                  "code" : "4A023N7"
                }
              ]
            }
          }
        ],
        "insurance" : [{
          "focal" : true,
          "coverage" : {
            "reference" : "Coverage/c4bb-Coverage"
          }
        }],
        "item" : [{
          "sequence" : 1,
          "revenue" : {
            "coding" : [{
              "system" : "https://www.nubc.org/CodeSystem/RevenueCodes",
              "code" : "0324"
            }]
          },
          "productOrService" : {
            "coding" : [
              {
                "system" : "http://www.ama-assn.org/go/cpt",
                "code" : "99231"
              }
            ]
          },
          "modifier" : [{
            "coding" : [{
              "system" : "https://www.cms.gov/Medicare/Coding/HCPCSReleaseCodeSets",
              "code" : "A1"
            }]
          }],
          "quantity": {
            "value": 2,
            "unit": "services"
      
          },
          "noteNumber": [1],
          "adjudication" : [
            {
              "category" : {
                "coding" : [{
                  "system" : "http://hl7.org/fhir/us/carin-bb/CodeSystem/C4BBAdjudicationDiscriminator",
                  "code" : "adjustmentreason"
                }]
              },
              "reason" : {
                "coding" : [{
                  "system" : "https://x12.org/codes/claim-adjustment-reason-codes",
                  "code" : "21"
                }]
              }
            },
            {
              "category" : {
                "coding" : [{
                  "system" : "http://hl7.org/fhir/us/carin-bb/CodeSystem/C4BBAdjudicationDiscriminator",
                  "code" : "allowedunits"
                }]
              },
              "value" : 2
            },
            {
              "category" : {
                "coding" : [
                  {
                    "system" : "http://terminology.hl7.org/CodeSystem/adjudication",
                    "code" : "submitted",
                    "display" : "Submitted Amount"
                  }
                ],
                "text" : "The total submitted amount for the claim or group or line item."
              },
              "amount" : {
                "value" : 84.4,
                "currency" : "USD"
              }
            }
          ]
        }],
        "adjudication" : [{
          "category" : {
            "coding" : [{
              "system" : "http://hl7.org/fhir/us/carin-bb/CodeSystem/C4BBAdjudicationDiscriminator",
              "code" : "benefitpaymentstatus"
            }]
          },
          "reason" : {
            "coding" : [{
              "system" : "http://hl7.org/fhir/us/carin-bb/CodeSystem/C4BBPayerAdjudicationStatus",
              "code" : "innetwork"
            }]
          }
        },
        {
          "category" : {
            "coding" : [{
              "system" : "http://hl7.org/fhir/us/carin-bb/CodeSystem/C4BBAdjudicationDiscriminator",
              "code" : "billingnetworkstatus"
            }]
          },
          "reason" : {
            "coding" : [{
              "system" : "http://hl7.org/fhir/us/carin-bb/CodeSystem/C4BBPayerAdjudicationStatus",
              "code" : "innetwork"
            }]
          }
        },
        {
          "category" : {
            "coding" : [{
              "system" : "http://hl7.org/fhir/us/carin-bb/CodeSystem/C4BBAdjudicationDiscriminator",
              "code" : "adjustmentreason"
            }]
          },
          "reason" : {
            "coding" : [{
              "system" : "https://x12.org/codes/claim-adjustment-reason-codes",
              "code" : "21"
            }]
          }
        }],
        "total": [
          {
            "category": {
              "coding": [
                {
                  "system": "http://hl7.org/fhir/us/carin-bb/CodeSystem/C4BBAdjudication",
                  "code": "paidtoprovider"
                }
              ],
              "text": "Payment Amount"
            },
            "amount": {
              "value": 620,
              "currency": "USD"
            }
          },
          {
            "category": {
              "coding": [
                {
                  "system": "http://terminology.hl7.org/CodeSystem/adjudication",
                  "code": "submitted"
                }
              ],
              "text": "Submitted Amount"
            },
            "amount": {
              "value": 2650,
              "currency": "USD"
            }
          },
          {
            "category": {
              "coding": [
                {
                  "system": "http://hl7.org/fhir/us/carin-bb/CodeSystem/C4BBAdjudication",
                  "code": "paidbypatient"
                }
              ],
              "text": "Patient Pay Amount"
            },
            "amount": {
              "value": 0,
              "currency": "USD"
            }
          }
        ],
        "payment": {
          "type" : {
            "coding": [
              {
                "system": "http://hl7.org/fhir/us/carin-bb/CodeSystem/C4BBPayerAdjudicationStatus",
                "code": "paid"
              }
            ]
          },
          "date" : "2017-05-23"
        },
        "processNote": [{
          "text": "Note explanatory text"
        }]
      },
      "request": {
        "method": "PUT",
        "url": "ExplanationOfBenefit/c4bb-EOBInpatient"
      }
    },
    {
      "resource": {
        "resourceType": "ExplanationOfBenefit",
        "id": "c4bb-EOBOutpatient",
        "meta": {
          "lastUpdated": "2019-12-12T09:14:11+00:00",
          "profile": [
            "http://hl7.org/fhir/us/carin-bb/StructureDefinition/C4BB-ExplanationOfBenefit-Outpatient-Institutional|2.0.0"
          ]
        },
        "language": "en-US",
        "text": {
          "status": "generated",
          "div": "<div xmlns=\"http://www.w3.org/1999/xhtml\" xml:lang=\"en-US\" lang=\"en-US\"><p><b>Generated Narrative: ExplanationOfBenefit</b><a name=\"c4bb-EOBOutpatient\"> </a></p><div style=\"display: inline-block; background-color: #d9e0e7; padding: 6px; margin: 4px; border: 1px solid #8da1b4; border-radius: 5px; line-height: 60%\"><p style=\"margin-bottom: 0px\">Resource ExplanationOfBenefit &quot;c4bb-EOBOutpatient&quot; Updated &quot;2019-12-12 09:14:11+0000&quot;  (Language &quot;en-US&quot;) </p><p style=\"margin-bottom: 0px\">Profile: <a href=\"StructureDefinition-C4BB-ExplanationOfBenefit-Outpatient-Institutional.html\">C4BB ExplanationOfBenefit Outpatient Institutional (version 2.0.0)</a></p></div><p><b>identifier</b>: Unique Claim ID: AW123412341234123412341234123412</p><p><b>status</b>: active</p><p><b>type</b>: Institutional <span style=\"background: LightGoldenRodYellow; margin: 4px; border: 1px solid khaki\"> (<a href=\"http://terminology.hl7.org/4.0.0/CodeSystem-claim-type.html\">Claim Type Codes</a>#institutional)</span></p><p><b>subType</b>: Outpatient <span style=\"background: LightGoldenRodYellow; margin: 4px; border: 1px solid khaki\"> (<a href=\"CodeSystem-C4BBInstitutionalClaimSubType.html\">C4BB Institutional Claim SubType Code System</a>#outpatient)</span></p><p><b>use</b>: claim</p><p><b>patient</b>: <a href=\"Patient-888.html\">Patient/888</a> &quot; TEST&quot;</p><p><b>billablePeriod</b>: 2019-01-01 --&gt; 2019-10-31</p><p><b>created</b>: 2019-11-02 12:00:00+0000</p><p><b>insurer</b>: <a href=\"Organization-c4bb-Organization.html\">Organization/c4bb-Organization: Organization C4BB</a> &quot;Organization C4BB&quot;</p><p><b>provider</b>: <a href=\"Organization-c4bb-Organization.html\">Organization/c4bb-Organization: Orange Medical Group</a> &quot;Orange Medical Group&quot;</p><p><b>outcome</b>: partial</p><h3>CareTeams</h3><table class=\"grid\"><tr><td>-</td><td><b>Sequence</b></td><td><b>Provider</b></td><td><b>Role</b></td><td><b>Qualification</b></td></tr><tr><td>*</td><td>1</td><td><a href=\"Organization-c4bb-Organization.html\">Organization/c4bb-Organization</a> &quot;Orange Medical Group&quot;</td><td>Rendering provider <span style=\"background: LightGoldenRodYellow; margin: 4px; border: 1px solid khaki\"> (<a href=\"CodeSystem-C4BBClaimCareTeamRole.html\">C4BB Claim Care Team Role Code System</a>#rendering)</span></td><td>Oncology Clinical Nurse Specialist <span style=\"background: LightGoldenRodYellow; margin: 4px; border: 1px solid khaki\"> (provider-taxonomy#364SX0200X)</span></td></tr></table><blockquote><p><b>supportingInfo</b></p><p><b>sequence</b>: 2</p><p><b>category</b>: Claim Received Date <span style=\"background: LightGoldenRodYellow; margin: 4px; border: 1px solid khaki\"> (<a href=\"CodeSystem-C4BBSupportingInfoType.html\">C4BB Supporting Info Type Code System</a>#clmrecvddate)</span></p><p><b>timing</b>: 2019-11-30</p></blockquote><blockquote><p><b>supportingInfo</b></p><p><b>sequence</b>: 3</p><p><b>category</b>: Type of Bill <span style=\"background: LightGoldenRodYellow; margin: 4px; border: 1px solid khaki\"> (<a href=\"CodeSystem-C4BBSupportingInfoType.html\">C4BB Supporting Info Type Code System</a>#typeofbill)</span></p><p><b>code</b>: Dummy <span style=\"background: LightGoldenRodYellow; margin: 4px; border: 1px solid khaki\"> (<a href=\"http://terminology.hl7.org/4.0.0/CodeSystem-AHANUBCTypeOfBill.html\">AHA NUBC Type Of Bill Codes</a>#Dummy)</span></p></blockquote><blockquote><p><b>supportingInfo</b></p><p><b>sequence</b>: 4</p><p><b>category</b>: Point Of Origin <span style=\"background: LightGoldenRodYellow; margin: 4px; border: 1px solid khaki\"> (<a href=\"CodeSystem-C4BBSupportingInfoType.html\">C4BB Supporting Info Type Code System</a>#pointoforigin)</span></p><p><b>code</b>: Dummy <span style=\"background: LightGoldenRodYellow; margin: 4px; border: 1px solid khaki\"> (<a href=\"http://terminology.hl7.org/4.0.0/CodeSystem-AHANUBCPointOfOriginNonnewborn.html\">AHA NUBC Point of Origin for Non-newborn</a>#Dummy)</span></p></blockquote><blockquote><p><b>supportingInfo</b></p><p><b>sequence</b>: 5</p><p><b>category</b>: Admission Type <span style=\"background: LightGoldenRodYellow; margin: 4px; border: 1px solid khaki\"> (<a href=\"CodeSystem-C4BBSupportingInfoType.html\">C4BB Supporting Info Type Code System</a>#admtype)</span></p><p><b>code</b>: Dummy <span style=\"background: LightGoldenRodYellow; margin: 4px; border: 1px solid khaki\"> (<a href=\"http://terminology.hl7.org/4.0.0/CodeSystem-AHANUBCPriorityTypeOfAdmitOrVisit.html\">AHA NUBC Priority (Type) of Admission or Visit</a>#Dummy)</span></p></blockquote><blockquote><p><b>supportingInfo</b></p><p><b>sequence</b>: 6</p><p><b>category</b>: Discharge Status <span style=\"background: LightGoldenRodYellow; margin: 4px; border: 1px solid khaki\"> (<a href=\"CodeSystem-C4BBSupportingInfoType.html\">C4BB Supporting Info Type Code System</a>#discharge-status)</span></p><p><b>code</b>: Dummy <span style=\"background: LightGoldenRodYellow; margin: 4px; border: 1px solid khaki\"> (<a href=\"http://terminology.hl7.org/4.0.0/CodeSystem-AHANUBCPatientDischargeStatus.html\">AHA NUBC Patient Discharge Status Codes</a>#Dummy)</span></p></blockquote><blockquote><p><b>supportingInfo</b></p><p><b>sequence</b>: 7</p><p><b>category</b>: Medical Record Number <span style=\"background: LightGoldenRodYellow; margin: 4px; border: 1px solid khaki\"> (<a href=\"CodeSystem-C4BBSupportingInfoType.html\">C4BB Supporting Info Type Code System</a>#medicalrecordnumber)</span></p><p><b>value</b>: 1234-234-1243-12345678901m</p></blockquote><blockquote><p><b>supportingInfo</b></p><p><b>sequence</b>: 8</p><p><b>category</b>: Patient Account Number <span style=\"background: LightGoldenRodYellow; margin: 4px; border: 1px solid khaki\"> (<a href=\"CodeSystem-C4BBSupportingInfoType.html\">C4BB Supporting Info Type Code System</a>#patientaccountnumber)</span></p><p><b>value</b>: 1234-234-1243-12345678901a</p></blockquote><h3>Diagnoses</h3><table class=\"grid\"><tr><td>-</td><td><b>Sequence</b></td><td><b>Diagnosis[x]</b></td><td><b>Type</b></td></tr><tr><td>*</td><td>1</td><td>Concussion w LOC of 30 minutes or less, init <span style=\"background: LightGoldenRodYellow; margin: 4px; border: 1px solid khaki\"> (<a href=\"http://terminology.hl7.org/4.0.0/CodeSystem-icd10CM.html\">International Classification of Diseases, 10th Revision, Clinical Modification (ICD-10-CM)</a>#S06.0X1A)</span></td><td>Patient Reason for Visit <span style=\"background: LightGoldenRodYellow; margin: 4px; border: 1px solid khaki\"> (<a href=\"CodeSystem-C4BBClaimDiagnosisType.html\">C4BB Claim Diagnosis Type Code System</a>#patientreasonforvisit)</span></td></tr></table><h3>Insurances</h3><table class=\"grid\"><tr><td>-</td><td><b>Focal</b></td><td><b>Coverage</b></td></tr><tr><td>*</td><td>true</td><td><a href=\"Coverage-c4bb-Coverage.html\">Coverage/c4bb-Coverage</a></td></tr></table><h3>Items</h3><table class=\"grid\"><tr><td>-</td><td><b>Sequence</b></td><td><b>Revenue</b></td><td><b>ProductOrService</b></td><td><b>Serviced[x]</b></td></tr><tr><td>*</td><td>1</td><td>Dummy <span style=\"background: LightGoldenRodYellow; margin: 4px; border: 1px solid khaki\"> (<a href=\"http://terminology.hl7.org/4.0.0/CodeSystem-AHANUBCRevenueCodes.html\">AHA NUBC Revenue Codes</a>#Dummy)</span></td><td>Not Applicable <span style=\"background: LightGoldenRodYellow; margin: 4px; border: 1px solid khaki\"> (<a href=\"http://terminology.hl7.org/4.0.0/CodeSystem-data-absent-reason.html\">DataAbsentReason</a>#not-applicable)</span></td><td>2019-11-02</td></tr></table><blockquote><p><b>adjudication</b></p><p><b>category</b>: Benefit Payment Status <span style=\"background: LightGoldenRodYellow; margin: 4px; border: 1px solid khaki\"> (<a href=\"CodeSystem-C4BBAdjudicationDiscriminator.html\">C4BB Adjudication Discriminator Code System</a>#benefitpaymentstatus)</span></p><p><b>reason</b>: In Network <span style=\"background: LightGoldenRodYellow; margin: 4px; border: 1px solid khaki\"> (<a href=\"CodeSystem-C4BBPayerAdjudicationStatus.html\">C4BB Payer Adjudication Status Code System</a>#innetwork)</span></p></blockquote><blockquote><p><b>adjudication</b></p><p><b>category</b>: Billing Network Status <span style=\"background: LightGoldenRodYellow; margin: 4px; border: 1px solid khaki\"> (<a href=\"CodeSystem-C4BBAdjudicationDiscriminator.html\">C4BB Adjudication Discriminator Code System</a>#billingnetworkstatus)</span></p><p><b>reason</b>: In Network <span style=\"background: LightGoldenRodYellow; margin: 4px; border: 1px solid khaki\"> (<a href=\"CodeSystem-C4BBPayerAdjudicationStatus.html\">C4BB Payer Adjudication Status Code System</a>#innetwork)</span></p></blockquote><blockquote><p><b>adjudication</b></p><p><b>category</b>: Payment Amount <span style=\"background: LightGoldenRodYellow; margin: 4px; border: 1px solid khaki\"> (<a href=\"CodeSystem-C4BBAdjudication.html\">C4BB Adjudication Code System</a>#paidtoprovider)</span></p></blockquote><blockquote><p><b>adjudication</b></p><p><b>category</b>: Patient Pay Amount <span style=\"background: LightGoldenRodYellow; margin: 4px; border: 1px solid khaki\"> (<a href=\"CodeSystem-C4BBAdjudication.html\">C4BB Adjudication Code System</a>#paidbypatient)</span></p></blockquote><blockquote><p><b>total</b></p><p><b>category</b>: Payment Amount <span style=\"background: LightGoldenRodYellow; margin: 4px; border: 1px solid khaki\"> (<a href=\"CodeSystem-C4BBAdjudication.html\">C4BB Adjudication Code System</a>#paidtoprovider)</span></p><h3>Amounts</h3><table class=\"grid\"><tr><td>-</td><td><b>Value</b></td><td><b>Currency</b></td></tr><tr><td>*</td><td>620</td><td>USD</td></tr></table></blockquote><blockquote><p><b>total</b></p><p><b>category</b>: Submitted Amount <span style=\"background: LightGoldenRodYellow; margin: 4px; border: 1px solid khaki\"> (<a href=\"http://terminology.hl7.org/4.0.0/CodeSystem-adjudication.html\">Adjudication Value Codes</a>#submitted)</span></p><h3>Amounts</h3><table class=\"grid\"><tr><td>-</td><td><b>Value</b></td><td><b>Currency</b></td></tr><tr><td>*</td><td>2650</td><td>USD</td></tr></table></blockquote><blockquote><p><b>total</b></p><p><b>category</b>: Patient Pay Amount <span style=\"background: LightGoldenRodYellow; margin: 4px; border: 1px solid khaki\"> (<a href=\"CodeSystem-C4BBAdjudication.html\">C4BB Adjudication Code System</a>#paidbypatient)</span></p><h3>Amounts</h3><table class=\"grid\"><tr><td>-</td><td><b>Value</b></td><td><b>Currency</b></td></tr><tr><td>*</td><td>0</td><td>USD</td></tr></table></blockquote></div>"
        },
        "identifier": [
          {
            "type": {
              "coding": [
                {
                  "system": "http://hl7.org/fhir/us/carin-bb/CodeSystem/C4BBIdentifierType",
                  "code": "uc"
                }
              ]
            },
            "system": "https://www.xxxplan.com/fhir/EOBIdentifier",
            "value": "AW123412341234123412341234123412"
          }
        ],
        "status": "active",
        "type": {
          "coding": [
            {
              "system": "http://terminology.hl7.org/CodeSystem/claim-type",
              "code": "institutional"
            }
          ],
          "text": "Institutional"
        },
        "subType": {
          "coding": [
            {
              "system": "http://hl7.org/fhir/us/carin-bb/CodeSystem/C4BBInstitutionalClaimSubType",
              "code": "outpatient"
            }
          ],
          "text": "Outpatient"
        },
        "use": "claim",
        "patient": {
          "reference": "Patient/888"
        },
        "billablePeriod": {
          "start": "2019-01-01",
          "end": "2019-10-31"
        },
        "created": "2019-11-02T00:00:00+00:00",
        "insurer": {
          "reference": "Organization/c4bb-Organization",
          "display": "Organization C4BB"
        },
        "provider": {
          "reference": "Organization/c4bb-Organization",
          "display": "Orange Medical Group"
        },
        "related": [{
          "relationship": {
            "coding" : [{
              "system" : "http://terminology.hl7.org/CodeSystem/ex-relatedclaimrelationship",
              "code" : "prior"
            }]
          },
          "reference": {
            "type" : {
              "coding" : [{
                "system" : "http://hl7.org/fhir/us/carin-bb/CodeSystem/C4BBIdentifierType",
                "code" : "uc"
              }]
            },
            "system" : "https://www.xxxplan.com/fhir/EOBIdentifier",
            "value" : "AW123412341234123412341234123413"
          }
        }],
        "outcome": "partial",
        "careTeam": [
          {
            "sequence": 1,
            "provider": {
              "reference": "Organization/c4bb-Organization"
            },
            "role": {
              "coding": [
                {
                  "system": "http://hl7.org/fhir/us/carin-bb/CodeSystem/C4BBClaimCareTeamRole",
                  "code": "rendering",
                  "display": "Rendering provider"
                }
              ]
            },
            "qualification": {
              "coding": [
                {
                  "system": "http://nucc.org/provider-taxonomy",
                  "code": "364SX0200X",
                  "display": "Oncology Clinical Nurse Specialist"
                }
              ]
            }
          }
        ],
        "supportingInfo": [
          {
            "sequence": 2,
            "category": {
              "coding": [
                {
                  "system": "http://hl7.org/fhir/us/carin-bb/CodeSystem/C4BBSupportingInfoType",
                  "code": "clmrecvddate"
                }
              ]
            },
            "timingDate": "2019-11-30"
          },
          {
            "sequence": 3,
            "category": {
              "coding": [
                {
                  "system": "http://hl7.org/fhir/us/carin-bb/CodeSystem/C4BBSupportingInfoType",
                  "code": "typeofbill"
                }
              ]
            },
            "code": {
              "coding": [
                {
                  "system": "https://www.nubc.org/CodeSystem/TypeOfBill",
                  "code": "Dummy"
                }
              ]
            }
          },
          {
            "sequence": 4,
            "category": {
              "coding": [
                {
                  "system": "http://hl7.org/fhir/us/carin-bb/CodeSystem/C4BBSupportingInfoType",
                  "code": "pointoforigin"
                }
              ]
            },
            "code": {
              "coding": [
                {
                  "system": "https://www.nubc.org/CodeSystem/PointOfOrigin",
                  "code": "Dummy"
                }
              ]
            }
          },
          {
            "sequence": 5,
            "category": {
              "coding": [
                {
                  "system": "http://hl7.org/fhir/us/carin-bb/CodeSystem/C4BBSupportingInfoType",
                  "code": "admtype"
                }
              ]
            },
            "code": {
              "coding": [
                {
                  "system": "https://www.nubc.org/CodeSystem/PriorityTypeOfAdmitOrVisit",
                  "code": "Dummy"
                }
              ]
            }
          },
          {
            "sequence": 6,
            "category": {
              "coding": [
                {
                  "system": "http://hl7.org/fhir/us/carin-bb/CodeSystem/C4BBSupportingInfoType",
                  "code": "discharge-status"
                }
              ]
            },
            "code": {
              "coding": [
                {
                  "system": "https://www.nubc.org/CodeSystem/PatDischargeStatus",
                  "code": "Dummy"
                }
              ]
            }
          },
          {
            "sequence": 7,
            "category": {
              "coding": [
                {
                  "system": "http://hl7.org/fhir/us/carin-bb/CodeSystem/C4BBSupportingInfoType",
                  "code": "medicalrecordnumber"
                }
              ]
            },
            "valueString": "1234-234-1243-12345678901m"
          },
          {
            "sequence": 8,
            "category": {
              "coding": [
                {
                  "system": "http://hl7.org/fhir/us/carin-bb/CodeSystem/C4BBSupportingInfoType",
                  "code": "patientaccountnumber"
                }
              ]
            },
            "valueString": "1234-234-1243-12345678901a"
          }
        ],
        "diagnosis": [
          {
            "sequence": 1,
            "diagnosisCodeableConcept": {
              "coding": [
                {
                  "system": "http://hl7.org/fhir/sid/icd-10-cm",
                  "code": "S06.0X1A"
                }
              ]
            },
            "type": [
              {
                "coding": [
                  {
                    "system": "http://hl7.org/fhir/us/carin-bb/CodeSystem/C4BBClaimDiagnosisType",
                    "code": "patientreasonforvisit"
                  }
                ]
              }
            ]
          }
        ],
        "insurance": [
          {
            "focal": true,
            "coverage": {
              "reference": "Coverage/c4bb-Coverage"
            }
          }
        ],
        "item": [
          {
            "sequence": 1,
            "revenue": {
              "coding": [
                {
                  "system": "https://www.nubc.org/CodeSystem/RevenueCodes",
                  "code": "Dummy"
                }
              ]
            },
            "productOrService": {
              "coding": [
                {
                  "system": "http://terminology.hl7.org/CodeSystem/data-absent-reason",
                  "code": "not-applicable",
                  "display": "Not Applicable"
                }
              ]
            },
            "servicedDate": "2019-11-02",
            "modifier" : [{
              "coding" : [{
                "system" : "https://www.cms.gov/Medicare/Coding/HCPCSReleaseCodeSets",
                "code" : "A1"
              }]
            }],
            "quantity": {
              "value": 2,
              "unit": "services"
        
            },
            "noteNumber": [1],
            "adjudication" : [
              {
                "category" : {
                  "coding" : [{
                    "system" : "http://hl7.org/fhir/us/carin-bb/CodeSystem/C4BBAdjudicationDiscriminator",
                    "code" : "adjustmentreason"
                  }]
                },
                "reason" : {
                  "coding" : [{
                    "system" : "https://x12.org/codes/claim-adjustment-reason-codes",
                    "code" : "21"
                  }]
                }
              },
              {
                "category" : {
                  "coding" : [{
                    "system" : "http://hl7.org/fhir/us/carin-bb/CodeSystem/C4BBAdjudicationDiscriminator",
                    "code" : "allowedunits"
                  }]
                },
                "value" : 2
              },
              {
                "category": {
                  "coding": [
                    {
                      "system": "http://hl7.org/fhir/us/carin-bb/CodeSystem/C4BBAdjudication",
                      "code": "paidtoprovider"
                    }
                  ],
                  "text": "Payment Amount"
                },
                "amount": {
                  "value": 620,
                  "currency": "USD"
                }
              },
              {
                "category": {
                  "coding": [
                    {
                      "system": "http://hl7.org/fhir/us/carin-bb/CodeSystem/C4BBAdjudication",
                      "code": "paidbypatient"
                    }
                  ],
                  "text": "Patient Pay Amount"
                },
                "amount": {
                  "value": 0
                }
              }
            ]
          }
        ],
        "adjudication": [
          {
            "category": {
              "coding": [
                {
                  "system": "http://hl7.org/fhir/us/carin-bb/CodeSystem/C4BBAdjudicationDiscriminator",
                  "code": "benefitpaymentstatus"
                }
              ]
            },
            "reason": {
              "coding": [
                {
                  "system": "http://hl7.org/fhir/us/carin-bb/CodeSystem/C4BBPayerAdjudicationStatus",
                  "code": "innetwork"
                }
              ]
            }
          },
          {
            "category": {
              "coding": [
                {
                  "system": "http://hl7.org/fhir/us/carin-bb/CodeSystem/C4BBAdjudicationDiscriminator",
                  "code": "billingnetworkstatus"
                }
              ]
            },
            "reason": {
              "coding": [
                {
                  "system": "http://hl7.org/fhir/us/carin-bb/CodeSystem/C4BBPayerAdjudicationStatus",
                  "code": "innetwork"
                }
              ]
            }
          },
          {
            "category" : {
              "coding" : [{
                "system" : "http://hl7.org/fhir/us/carin-bb/CodeSystem/C4BBAdjudicationDiscriminator",
                "code" : "adjustmentreason"
              }]
            },
            "reason" : {
              "coding" : [{
                "system" : "https://x12.org/codes/claim-adjustment-reason-codes",
                "code" : "21"
              }]
            }
          }
        ],
        "total": [
          {
            "category": {
              "coding": [
                {
                  "system": "http://hl7.org/fhir/us/carin-bb/CodeSystem/C4BBAdjudication",
                  "code": "paidtoprovider"
                }
              ],
              "text": "Payment Amount"
            },
            "amount": {
              "value": 620,
              "currency": "USD"
            }
          },
          {
            "category": {
              "coding": [
                {
                  "system": "http://terminology.hl7.org/CodeSystem/adjudication",
                  "code": "submitted"
                }
              ],
              "text": "Submitted Amount"
            },
            "amount": {
              "value": 2650,
              "currency": "USD"
            }
          },
          {
            "category": {
              "coding": [
                {
                  "system": "http://hl7.org/fhir/us/carin-bb/CodeSystem/C4BBAdjudication",
                  "code": "paidbypatient"
                }
              ],
              "text": "Patient Pay Amount"
            },
            "amount": {
              "value": 0,
              "currency": "USD"
            }
          }
        ],
        "payment": {
          "type" : {
            "coding": [
              {
                "system": "http://hl7.org/fhir/us/carin-bb/CodeSystem/C4BBPayerAdjudicationStatus",
                "code": "paid"
              }
            ]
          },
          "date" : "2017-05-23"
        },
        "processNote": [{
          "text": "Note explanatory text"
        }]
      },
      "request": {
        "method": "PUT",
        "url": "ExplanationOfBenefit/c4bb-EOBOutpatient"
      }
    },
    {
      "resource": {
        "resourceType": "ExplanationOfBenefit",
        "id": "c4bb-EOBOral",
        "meta": {
          "lastUpdated": "2021-03-18T10:23:00-05:00",
          "profile": [
            "http://hl7.org/fhir/us/carin-bb/StructureDefinition/C4BB-ExplanationOfBenefit-Oral|2.0.0"
          ]
        },
        "language": "en-US",
        "text": {
          "status": "generated",
          "div": "<div xmlns=\"http://www.w3.org/1999/xhtml\" xml:lang=\"en-US\" lang=\"en-US\"><p><b>Generated Narrative: ExplanationOfBenefit</b><a name=\"c4bb-EOBOral\"> </a></p><div style=\"display: inline-block; background-color: #d9e0e7; padding: 6px; margin: 4px; border: 1px solid #8da1b4; border-radius: 5px; line-height: 60%\"><p style=\"margin-bottom: 0px\">Resource ExplanationOfBenefit &quot;c4bb-EOBOral&quot; Updated &quot;2021-03-18 10:23:00-0500&quot;  (Language &quot;en-US&quot;) </p><p style=\"margin-bottom: 0px\">Profile: <a href=\"StructureDefinition-C4BB-ExplanationOfBenefit-Oral.html\">C4BB ExplanationOfBenefit Oral (version 2.0.0)</a></p></div><p><b>identifier</b>: Unique Claim ID: 210300002</p><p><b>status</b>: active</p><p><b>type</b>: Oral <span style=\"background: LightGoldenRodYellow; margin: 4px; border: 1px solid khaki\"> (<a href=\"http://terminology.hl7.org/4.0.0/CodeSystem-claim-type.html\">Claim Type Codes</a>#oral)</span></p><p><b>use</b>: claim</p><p><b>patient</b>: <a href=\"Patient-888.html\">Patient/888</a> &quot; TEST&quot;</p><p><b>billablePeriod</b>: 2021-03-01 --&gt; 2021-03-31</p><p><b>created</b>: 2021-03-18 10:23:00-0500</p><p><b>insurer</b>: <a href=\"Organization-c4bb-Organization.html\">Organization/c4bb-Organization: XXX Health Plan</a> &quot;INSURANCE COMPANY XYZ&quot;</p><p><b>provider</b>: <a href=\"Practitioner-c4bb-Practitioner.html\">Practitioner/c4bb-Practitioner: XXX Dental Plan</a> &quot; SCHMIDT&quot;</p><p><b>outcome</b>: complete</p><blockquote><p><b>supportingInfo</b></p><p><b>sequence</b>: 3</p><p><b>category</b>: Claim Received Date <span style=\"background: LightGoldenRodYellow; margin: 4px; border: 1px solid khaki\"> (<a href=\"CodeSystem-C4BBSupportingInfoType.html\">C4BB Supporting Info Type Code System</a>#clmrecvddate)</span></p><p><b>timing</b>: 2021-03-18</p></blockquote><blockquote><p><b>supportingInfo</b></p><p><b>sequence</b>: 4</p><p><b>category</b>: Service Facility <span style=\"background: LightGoldenRodYellow; margin: 4px; border: 1px solid khaki\"> (<a href=\"CodeSystem-C4BBSupportingInfoType.html\">C4BB Supporting Info Type Code System</a>#servicefacility)</span></p><p><b>value</b>: <a href=\"Organization-c4bb-Organization.html\">Organization/c4bb-Organization</a> &quot;Orange Medical Group&quot;</p></blockquote><blockquote><p><b>supportingInfo</b></p><p><b>sequence</b>: 5</p><p><b>category</b>: Patient Account Number <span style=\"background: LightGoldenRodYellow; margin: 4px; border: 1px solid khaki\"> (<a href=\"CodeSystem-C4BBSupportingInfoType.html\">C4BB Supporting Info Type Code System</a>#patientaccountnumber)</span></p><p><b>value</b>: PATIENTACCTNO3</p></blockquote><h3>Diagnoses</h3><table class=\"grid\"><tr><td>-</td><td><b>Sequence</b></td><td><b>Diagnosis[x]</b></td><td><b>Type</b></td></tr><tr><td>*</td><td>1</td><td>Encounter for dental examination and cleaning with abnormal findings <span style=\"background: LightGoldenRodYellow; margin: 4px; border: 1px solid khaki\"> (<a href=\"http://terminology.hl7.org/4.0.0/CodeSystem-icd10CM.html\">International Classification of Diseases, 10th Revision, Clinical Modification (ICD-10-CM)</a>#Z01.21)</span></td><td>Principal Diagnosis <span style=\"background: LightGoldenRodYellow; margin: 4px; border: 1px solid khaki\"> (<a href=\"http://terminology.hl7.org/4.0.0/CodeSystem-ex-diagnosistype.html\">Example Diagnosis Type Codes</a>#principal)</span></td></tr></table><h3>Insurances</h3><table class=\"grid\"><tr><td>-</td><td><b>Focal</b></td><td><b>Coverage</b></td></tr><tr><td>*</td><td>true</td><td><a href=\"Coverage-c4bb-Coverage.html\">Coverage/c4bb-Coverage</a></td></tr></table><blockquote><p><b>item</b></p><p><b>sequence</b>: 1</p><p><b>productOrService</b>: Prophylaxis - Adult <span style=\"background: LightGoldenRodYellow; margin: 4px; border: 1px solid khaki\"> (<a href=\"http://terminology.hl7.org/4.0.0/CodeSystem-CDT.html\">Code on Dental Procedures and Nomenclature</a>#D1110)</span></p><p><b>serviced</b>: 2021-03-18</p><p><b>location</b>: Office <span style=\"background: LightGoldenRodYellow; margin: 4px; border: 1px solid khaki\"> (<a href=\"http://terminology.hl7.org/4.0.0/CodeSystem-CMSPlaceofServiceCodes.html\">CMS Place of Service Codes (POS)</a>#11)</span></p><blockquote><p><b>adjudication</b></p><p><b>category</b>: Benefit Payment Status <span style=\"background: LightGoldenRodYellow; margin: 4px; border: 1px solid khaki\"> (<a href=\"CodeSystem-C4BBAdjudicationDiscriminator.html\">C4BB Adjudication Discriminator Code System</a>#benefitpaymentstatus)</span></p><p><b>reason</b>: In Network <span style=\"background: LightGoldenRodYellow; margin: 4px; border: 1px solid khaki\"> (<a href=\"CodeSystem-C4BBPayerAdjudicationStatus.html\">C4BB Payer Adjudication Status Code System</a>#innetwork)</span></p></blockquote><blockquote><p><b>adjudication</b></p><p><b>category</b>: Submitted Amount <span style=\"background: LightGoldenRodYellow; margin: 4px; border: 1px solid khaki\"> (<a href=\"http://terminology.hl7.org/4.0.0/CodeSystem-adjudication.html\">Adjudication Value Codes</a>#submitted)</span></p><h3>Amounts</h3><table class=\"grid\"><tr><td>-</td><td><b>Value</b></td><td><b>Currency</b></td></tr><tr><td>*</td><td>190</td><td>USD</td></tr></table></blockquote></blockquote><blockquote><p><b>item</b></p><p><b>sequence</b>: 2</p><p><b>productOrService</b>: Periodic oral evaluation <span style=\"background: LightGoldenRodYellow; margin: 4px; border: 1px solid khaki\"> (<a href=\"http://terminology.hl7.org/4.0.0/CodeSystem-CDT.html\">Code on Dental Procedures and Nomenclature</a>#D0120)</span></p><p><b>serviced</b>: 2021-03-18</p><p><b>location</b>: Office <span style=\"background: LightGoldenRodYellow; margin: 4px; border: 1px solid khaki\"> (<a href=\"http://terminology.hl7.org/4.0.0/CodeSystem-CMSPlaceofServiceCodes.html\">CMS Place of Service Codes (POS)</a>#11)</span></p><blockquote><p><b>adjudication</b></p><p><b>category</b>: Benefit Payment Status <span style=\"background: LightGoldenRodYellow; margin: 4px; border: 1px solid khaki\"> (<a href=\"CodeSystem-C4BBAdjudicationDiscriminator.html\">C4BB Adjudication Discriminator Code System</a>#benefitpaymentstatus)</span></p><p><b>reason</b>: In Network <span style=\"background: LightGoldenRodYellow; margin: 4px; border: 1px solid khaki\"> (<a href=\"CodeSystem-C4BBPayerAdjudicationStatus.html\">C4BB Payer Adjudication Status Code System</a>#innetwork)</span></p></blockquote><blockquote><p><b>adjudication</b></p><p><b>category</b>: Submitted Amount <span style=\"background: LightGoldenRodYellow; margin: 4px; border: 1px solid khaki\"> (<a href=\"http://terminology.hl7.org/4.0.0/CodeSystem-adjudication.html\">Adjudication Value Codes</a>#submitted)</span></p><h3>Amounts</h3><table class=\"grid\"><tr><td>-</td><td><b>Value</b></td><td><b>Currency</b></td></tr><tr><td>*</td><td>220</td><td>USD</td></tr></table></blockquote></blockquote><h3>Adjudications</h3><table class=\"grid\"><tr><td>-</td><td><b>Category</b></td><td><b>Reason</b></td></tr><tr><td>*</td><td>Rendering Network Status <span style=\"background: LightGoldenRodYellow; margin: 4px; border: 1px solid khaki\"> (<a href=\"CodeSystem-C4BBAdjudicationDiscriminator.html\">C4BB Adjudication Discriminator Code System</a>#renderingnetworkstatus)</span></td><td>In Network <span style=\"background: LightGoldenRodYellow; margin: 4px; border: 1px solid khaki\"> (<a href=\"CodeSystem-C4BBPayerAdjudicationStatus.html\">C4BB Payer Adjudication Status Code System</a>#innetwork)</span></td></tr><tr><td>*</td><td>Benefit Payment Status <span style=\"background: LightGoldenRodYellow; margin: 4px; border: 1px solid khaki\"> (<a href=\"CodeSystem-C4BBAdjudicationDiscriminator.html\">C4BB Adjudication Discriminator Code System</a>#benefitpaymentstatus)</span></td><td>In Network <span style=\"background: LightGoldenRodYellow; margin: 4px; border: 1px solid khaki\"> (<a href=\"CodeSystem-C4BBPayerAdjudicationStatus.html\">C4BB Payer Adjudication Status Code System</a>#innetwork)</span></td></tr><tr><td>*</td><td>Billing Network Status <span style=\"background: LightGoldenRodYellow; margin: 4px; border: 1px solid khaki\"> (<a href=\"CodeSystem-C4BBAdjudicationDiscriminator.html\">C4BB Adjudication Discriminator Code System</a>#billingnetworkstatus)</span></td><td>In Network <span style=\"background: LightGoldenRodYellow; margin: 4px; border: 1px solid khaki\"> (<a href=\"CodeSystem-C4BBPayerAdjudicationStatus.html\">C4BB Payer Adjudication Status Code System</a>#innetwork)</span></td></tr></table><blockquote><p><b>total</b></p><p><b>category</b>: Submitted Amount <span style=\"background: LightGoldenRodYellow; margin: 4px; border: 1px solid khaki\"> (<a href=\"http://terminology.hl7.org/4.0.0/CodeSystem-adjudication.html\">Adjudication Value Codes</a>#submitted)</span></p><h3>Amounts</h3><table class=\"grid\"><tr><td>-</td><td><b>Value</b></td><td><b>Currency</b></td></tr><tr><td>*</td><td>410</td><td>USD</td></tr></table></blockquote><blockquote><p><b>total</b></p><p><b>category</b>: Benefit Amount <span style=\"background: LightGoldenRodYellow; margin: 4px; border: 1px solid khaki\"> (<a href=\"http://terminology.hl7.org/4.0.0/CodeSystem-adjudication.html\">Adjudication Value Codes</a>#benefit)</span></p><h3>Amounts</h3><table class=\"grid\"><tr><td>-</td><td><b>Value</b></td><td><b>Currency</b></td></tr><tr><td>*</td><td>350</td><td>USD</td></tr></table></blockquote><blockquote><p><b>total</b></p><p><b>category</b>: Discount Amount <span style=\"background: LightGoldenRodYellow; margin: 4px; border: 1px solid khaki\"> (<a href=\"CodeSystem-C4BBAdjudication.html\">C4BB Adjudication Code System</a>#discount)</span></p><h3>Amounts</h3><table class=\"grid\"><tr><td>-</td><td><b>Value</b></td><td><b>Currency</b></td></tr><tr><td>*</td><td>60</td><td>USD</td></tr></table></blockquote><blockquote><p><b>total</b></p><p><b>category</b>: Amount Paid to Provider <span style=\"background: LightGoldenRodYellow; margin: 4px; border: 1px solid khaki\"> (<a href=\"CodeSystem-C4BBAdjudication.html\">C4BB Adjudication Code System</a>#paidtoprovider)</span></p><h3>Amounts</h3><table class=\"grid\"><tr><td>-</td><td><b>Value</b></td><td><b>Currency</b></td></tr><tr><td>*</td><td>350</td><td>USD</td></tr></table></blockquote></div>"
        },
        "identifier": [
          {
            "type": {
              "coding": [
                {
                  "system": "http://hl7.org/fhir/us/carin-bb/CodeSystem/C4BBIdentifierType",
                  "code": "uc"
                }
              ]
            },
            "system": "https://www.xxxplan.com/fhir/EOBIdentifier",
            "value": "210300002"
          }
        ],
        "status": "active",
        "type": {
          "coding": [
            {
              "system": "http://terminology.hl7.org/CodeSystem/claim-type",
              "code": "oral"
            }
          ],
          "text": "Oral"
        },
        "use": "claim",
        "patient": {
          "reference": "Patient/888"
        },
        "billablePeriod": {
          "start": "2021-03-01",
          "end": "2021-03-31"
        },
        "created": "2021-03-18T10:23:00-05:00",
        "insurer": {
          "reference": "Organization/c4bb-Organization",
          "display": "XXX Health Plan"
        },
        "provider": {
          "reference": "Practitioner/c4bb-Practitioner",
          "display": "XXX Dental Plan"
        },
        "related": [{
          "relationship": {
            "coding" : [{
              "system" : "http://terminology.hl7.org/CodeSystem/ex-relatedclaimrelationship",
              "code" : "prior"
            }]
          },
          "reference": {
            "type" : {
              "coding" : [{
                "system" : "http://hl7.org/fhir/us/carin-bb/CodeSystem/C4BBIdentifierType",
                "code" : "uc"
              }]
            },
            "system" : "https://www.xxxplan.com/fhir/EOBIdentifier",
            "value" : "AW123412341234123412341234123413"
          }
        }],
        "payee": {
          "type" : {
            "coding" : [{
              "system" : "http://terminology.hl7.org/CodeSystem/payeetype",
              "code" : "other"
            }]
          },
          "party": {
            "reference" : "RelatedPerson/c4bb-RelatedPerson",
            "display" : "Mary Jones"
          }
        },
        "outcome": "complete",
        "careTeam" : [
          {
            "sequence" : 1,
            "provider" : {
              "reference" : "Practitioner/c4bb-Practitioner"
            },
            "role" : {
              "coding" : [
                {
                  "system" : "http://terminology.hl7.org/CodeSystem/claimcareteamrole",
                  "code" : "primary",
                  "display" : "Primary provider"
                }
              ],
              "text" : "The primary care provider"
            }
        }],
        "supportingInfo": [
          {
            "sequence": 3,
            "category": {
              "coding": [
                {
                  "system": "http://hl7.org/fhir/us/carin-bb/CodeSystem/C4BBSupportingInfoType",
                  "code": "clmrecvddate"
                }
              ]
            },
            "timingDate": "2021-03-18"
          },
          {
            "sequence": 4,
            "category": {
              "coding": [
                {
                  "system": "http://hl7.org/fhir/us/carin-bb/CodeSystem/C4BBSupportingInfoType",
                  "code": "servicefacility"
                }
              ]
            },
            "valueReference": {
              "reference": "Organization/c4bb-Organization"
            }
          },
          {
            "sequence": 5,
            "category": {
              "coding": [
                {
                  "system": "http://hl7.org/fhir/us/carin-bb/CodeSystem/C4BBSupportingInfoType",
                  "code": "orthodontics"
                }
              ]
            },
            "valueQuantity": {
              "value": 3,
              "comparator": ">",
              "unit": "months"
            }
          },
          {
            "sequence": 6,
            "category": {
              "coding": [
                {
                  "system": "http://hl7.org/fhir/us/carin-bb/CodeSystem/C4BBSupportingInfoType",
                  "code": "prosthesis"
                }
              ]
            },
            "valueBoolean": false
          },
          {
            "sequence": 7,
            "category": {
              "coding": [
                {
                  "system": "http://hl7.org/fhir/us/carin-bb/CodeSystem/C4BBSupportingInfoType",
                  "code": "additionalbodysite"
                }
              ]
            },
            "code" : {
              "coding" : [
                {
                  "system" : "http://terminology.hl7.org/CodeSystem/ADAUniversalToothDesignationSystem",
                  "code" : "2"
                }
              ]
            }
          },
          {
            "sequence": 8,
            "category": {
              "coding": [
                {
                  "system": "http://hl7.org/fhir/us/carin-bb/CodeSystem/C4BBSupportingInfoType",
                  "code": "missingtoothnumber"
                }
              ]
            },
            "code" : {
              "coding" : [
                {
                  "system" : "http://terminology.hl7.org/CodeSystem/ADAUniversalToothDesignationSystem",
                  "code" : "1"
                }
              ]
            }
          },
          {
            "sequence": 9,
            "category": {
              "coding": [
                {
                  "system": "http://hl7.org/fhir/us/carin-bb/CodeSystem/C4BBSupportingInfoType",
                  "code": "medicalrecordnumber"
                }
              ]
            },
            "valueString": "MEDICALRECNO3"
          },
          {
            "sequence": 10,
            "category": {
              "coding": [
                {
                  "system": "http://hl7.org/fhir/us/carin-bb/CodeSystem/C4BBSupportingInfoType",
                  "code": "patientaccountnumber"
                }
              ]
            },
            "valueString": "PATIENTACCTNO3"
          }
        ],
        "diagnosis": [
          {
            "sequence": 1,
            "diagnosisCodeableConcept": {
              "coding": [
                {
                  "system": "http://hl7.org/fhir/sid/icd-10-cm",
                  "code": "Z01.21",
                  "display": "Encounter for dental examination and cleaning with abnormal findings"
                }
              ]
            },
            "type": [
              {
                "coding": [
                  {
                    "system": "http://terminology.hl7.org/CodeSystem/ex-diagnosistype",
                    "code": "principal"
                  }
                ]
              }
            ]
          }
        ],
        "insurance": [
          {
            "focal": true,
            "coverage": {
              "reference": "Coverage/c4bb-Coverage"
            }
          }
        ],
        "item": [
          {
            "sequence": 1,
            "informationSequence": [6, 7, 9, 10, 11],
            "productOrService": {
              "coding": [
                {
                  "system": "http://www.ada.org/cdt",
                  "code": "D0220",
                  "display": "Intraoral - periapical first radiographic image"
                }
              ]
            },
            "modifier" : [{
              "coding" : [{
                "system" : "https://www.cms.gov/Medicare/Coding/HCPCSReleaseCodeSets",
                "code" : "A1"
              }]
            }],
            "servicedDate": "2021-10-28",
            "locationCodeableConcept": {
              "coding": [
                {
                  "system": "https://www.cms.gov/Medicare/Coding/place-of-service-codes/Place_of_Service_Code_Set",
                  "code": "11",
                  "display": "Office"
                }
              ]
            },
            "quantity": {
              "value": 2,
              "unit": "services"
        
            },
            "bodySite": {
              "coding": [
                {
                  "system": "http://terminology.hl7.org/CodeSystem/ADAAreaOralCavitySystem",
                  "code": "10",
                  "display": "Upper right quadrant"
                }
              ]
            },
            "subSite": [
              {
                "coding": [
                  {
                    "system": "http://hl7.org/fhir/us/carin-bb/CodeSystem/C4BBSurfaceCodes",
                    "code": "I"
                  }
                ]
              }
            ],
            "noteNumber": [1],
            "adjudication": [
              {
                "category" : {
                  "coding" : [{
                    "system" : "http://hl7.org/fhir/us/carin-bb/CodeSystem/C4BBAdjudicationDiscriminator",
                    "code" : "adjustmentreason"
                  }]
                },
                "reason" : {
                  "coding" : [{
                    "system" : "https://x12.org/codes/claim-adjustment-reason-codes",
                    "code" : "21"
                  }]
                }
              },
              {
                "category" : {
                  "coding" : [{
                    "system" : "http://hl7.org/fhir/us/carin-bb/CodeSystem/C4BBAdjudicationDiscriminator",
                    "code" : "allowedunits"
                  }]
                },
                "value" : 2
              },
              {
                "category": {
                  "coding": [
                    {
                      "system": "http://hl7.org/fhir/us/carin-bb/CodeSystem/C4BBAdjudicationDiscriminator",
                      "code": "benefitpaymentstatus"
                    }
                  ]
                },
                "reason": {
                  "coding": [
                    {
                      "system": "http://hl7.org/fhir/us/carin-bb/CodeSystem/C4BBPayerAdjudicationStatus",
                      "code": "innetwork"
                    }
                  ]
                }
              },
              {
                "category": {
                  "coding": [
                    {
                      "system": "http://terminology.hl7.org/CodeSystem/adjudication",
                      "code": "submitted"
                    }
                  ]
                },
                "amount": {
                  "value": 1000,
                  "currency": "USD"
                }
              }
            ]
          }
        ],
        "adjudication": [
          {
            "category": {
              "coding": [
                {
                  "system": "http://hl7.org/fhir/us/carin-bb/CodeSystem/C4BBAdjudicationDiscriminator",
                  "code": "renderingnetworkstatus"
                }
              ]
            },
            "reason": {
              "coding": [
                {
                  "system": "http://hl7.org/fhir/us/carin-bb/CodeSystem/C4BBPayerAdjudicationStatus",
                  "code": "innetwork"
                }
              ]
            }
          },
          {
            "category": {
              "coding": [
                {
                  "system": "http://hl7.org/fhir/us/carin-bb/CodeSystem/C4BBAdjudicationDiscriminator",
                  "code": "benefitpaymentstatus"
                }
              ]
            },
            "reason": {
              "coding": [
                {
                  "system": "http://hl7.org/fhir/us/carin-bb/CodeSystem/C4BBPayerAdjudicationStatus",
                  "code": "innetwork"
                }
              ]
            }
          },
          {
            "category": {
              "coding": [
                {
                  "system": "http://hl7.org/fhir/us/carin-bb/CodeSystem/C4BBAdjudicationDiscriminator",
                  "code": "billingnetworkstatus"
                }
              ]
            },
            "reason": {
              "coding": [
                {
                  "system": "http://hl7.org/fhir/us/carin-bb/CodeSystem/C4BBPayerAdjudicationStatus",
                  "code": "innetwork"
                }
              ]
            }
          },
          {
            "category": {
              "coding": [
                {
                  "system": "http://terminology.hl7.org/CodeSystem/adjudication",
                  "code": "submitted"
                }
              ]
            },
            "amount": {
              "value": 1000,
              "currency": "USD"
            }
          }
        ],
        "total": [
          {
            "category": {
              "coding": [
                {
                  "system": "http://terminology.hl7.org/CodeSystem/adjudication",
                  "code": "submitted"
                }
              ],
              "text": "Submitted Amount"
            },
            "amount": {
              "value": 410,
              "currency": "USD"
            }
          },
          {
            "category": {
              "coding": [
                {
                  "system": "http://terminology.hl7.org/CodeSystem/adjudication",
                  "code": "benefit"
                }
              ],
              "text": "Benefit Amount"
            },
            "amount": {
              "value": 350,
              "currency": "USD"
            }
          },
          {
            "category": {
              "coding": [
                {
                  "system": "http://hl7.org/fhir/us/carin-bb/CodeSystem/C4BBAdjudication",
                  "code": "discount"
                }
              ],
              "text": "Discount Amount"
            },
            "amount": {
              "value": 60,
              "currency": "USD"
            }
          },
          {
            "category": {
              "coding": [
                {
                  "system": "http://hl7.org/fhir/us/carin-bb/CodeSystem/C4BBAdjudication",
                  "code": "paidtoprovider"
                }
              ],
              "text": "Amount Paid to Provider"
            },
            "amount": {
              "value": 350,
              "currency": "USD"
            }
          }
        ],
        "payment": {
          "type" : {
            "coding": [
              {
                "system": "http://hl7.org/fhir/us/carin-bb/CodeSystem/C4BBPayerAdjudicationStatus",
                "code": "paid"
              }
            ]
          },
          "date" : "2017-05-23"
        },
        "processNote": [{
          "text": "Note explanatory text"
        }]
      },
      "request": {
        "method": "PUT",
        "url": "ExplanationOfBenefit/c4bb-EOBOral"
      }
    },
    {
      "resource": {
        "resourceType": "ExplanationOfBenefit",
        "id": "c4bb-EOBPharmacy",
        "meta": {
          "lastUpdated": "2019-12-12T09:14:11+00:00",
          "profile": [
            "http://hl7.org/fhir/us/carin-bb/StructureDefinition/C4BB-ExplanationOfBenefit-Pharmacy|2.0.0"
          ]
        },
        "language": "en-US",
        "text": {
          "status": "generated",
          "div": "<div xmlns=\"http://www.w3.org/1999/xhtml\" xml:lang=\"en-US\" lang=\"en-US\"><p><b>Generated Narrative: ExplanationOfBenefit</b><a name=\"c4bb-EOBPharmacy\"> </a></p><div style=\"display: inline-block; background-color: #d9e0e7; padding: 6px; margin: 4px; border: 1px solid #8da1b4; border-radius: 5px; line-height: 60%\"><p style=\"margin-bottom: 0px\">Resource ExplanationOfBenefit &quot;c4bb-EOBPharmacy&quot; Updated &quot;2019-12-12 09:14:11+0000&quot;  (Language &quot;en-US&quot;) </p><p style=\"margin-bottom: 0px\">Profile: <a href=\"StructureDefinition-C4BB-ExplanationOfBenefit-Pharmacy.html\">C4BB ExplanationOfBenefit Pharmacy (version 2.0.0)</a></p></div><p><b>identifier</b>: Unique Claim ID: AW123412341234123412341234123412</p><p><b>status</b>: active</p><p><b>type</b>: Pharmacy <span style=\"background: LightGoldenRodYellow; margin: 4px; border: 1px solid khaki\"> (<a href=\"http://terminology.hl7.org/4.0.0/CodeSystem-claim-type.html\">Claim Type Codes</a>#pharmacy)</span></p><p><b>use</b>: claim</p><p><b>patient</b>: <a href=\"Patient-888.html\">Patient/888</a> &quot; TEST&quot;</p><p><b>billablePeriod</b>: 2019-10-30 --&gt; 2019-10-31</p><p><b>created</b>: 2019-07-02 12:00:00+0000</p><p><b>insurer</b>: <a href=\"Organization-c4bb-Organization.html\">Organization/c4bb-Organization: XXX Health Plan</a> &quot;Organization Payer 1&quot;</p><p><b>provider</b>: <a href=\"Organization-c4bb-Organization.html\">Organization/c4bb-Organization: XXX Health Plan</a> &quot;Orange Medical Group&quot;</p><p><b>outcome</b>: partial</p><blockquote><p><b>supportingInfo</b></p><p><b>sequence</b>: 8</p><p><b>category</b>: Days Supply <span style=\"background: LightGoldenRodYellow; margin: 4px; border: 1px solid khaki\"> (<a href=\"CodeSystem-C4BBSupportingInfoType.html\">C4BB Supporting Info Type Code System</a>#dayssupply)</span></p><p><b>value</b>: 30</p></blockquote><blockquote><p><b>supportingInfo</b></p><p><b>sequence</b>: 6</p><p><b>category</b>: DAW (Dispense As Written) Code <span style=\"background: LightGoldenRodYellow; margin: 4px; border: 1px solid khaki\"> (<a href=\"CodeSystem-C4BBSupportingInfoType.html\">C4BB Supporting Info Type Code System</a>#dawcode)</span></p><p><b>code</b>: 7 <span style=\"background: LightGoldenRodYellow; margin: 4px; border: 1px solid khaki\"> (<a href=\"http://terminology.hl7.org/4.0.0/CodeSystem-NCPDPDispensedAsWrittenOrProductSelectionCode.html\">NCPDP Dispense As Written (DAW)/Product Selection Code</a>#7)</span></p></blockquote><blockquote><p><b>supportingInfo</b></p><p><b>sequence</b>: 4</p><p><b>category</b>: Refill Number <span style=\"background: LightGoldenRodYellow; margin: 4px; border: 1px solid khaki\"> (<a href=\"CodeSystem-C4BBSupportingInfoType.html\">C4BB Supporting Info Type Code System</a>#refillnum)</span></p><p><b>value</b>: 0</p></blockquote><blockquote><p><b>supportingInfo</b></p><p><b>sequence</b>: 5</p><p><b>category</b>: Refills Authorized <span style=\"background: LightGoldenRodYellow; margin: 4px; border: 1px solid khaki\"> (<a href=\"CodeSystem-C4BBSupportingInfoType.html\">C4BB Supporting Info Type Code System</a>#refillsauthorized)</span></p><p><b>value</b>: 0</p></blockquote><blockquote><p><b>supportingInfo</b></p><p><b>sequence</b>: 2</p><p><b>category</b>: Brand Generic Indicator <span style=\"background: LightGoldenRodYellow; margin: 4px; border: 1px solid khaki\"> (<a href=\"CodeSystem-C4BBSupportingInfoType.html\">C4BB Supporting Info Type Code System</a>#brandgenericindicator)</span></p><p><b>code</b>: 2 <span style=\"background: LightGoldenRodYellow; margin: 4px; border: 1px solid khaki\"> (<a href=\"http://terminology.hl7.org/4.0.0/CodeSystem-NCPDPBrandGenericIndicator.html\">NCPDP Brand Generic Indicator</a>#2)</span></p></blockquote><blockquote><p><b>supportingInfo</b></p><p><b>sequence</b>: 3</p><p><b>category</b>: Rx Origin Code <span style=\"background: LightGoldenRodYellow; margin: 4px; border: 1px solid khaki\"> (<a href=\"CodeSystem-C4BBSupportingInfoType.html\">C4BB Supporting Info Type Code System</a>#rxorigincode)</span></p><p><b>code</b>: 1 <span style=\"background: LightGoldenRodYellow; margin: 4px; border: 1px solid khaki\"> (<a href=\"http://terminology.hl7.org/4.0.0/CodeSystem-NCPDPPrescriptionOriginCode.html\">NCPDP Prescription Origin Code</a>#1)</span></p></blockquote><blockquote><p><b>supportingInfo</b></p><p><b>sequence</b>: 7</p><p><b>category</b>: Claim Received Date <span style=\"background: LightGoldenRodYellow; margin: 4px; border: 1px solid khaki\"> (<a href=\"CodeSystem-C4BBSupportingInfoType.html\">C4BB Supporting Info Type Code System</a>#clmrecvddate)</span></p><p><b>timing</b>: 2019-10-31</p></blockquote><blockquote><p><b>supportingInfo</b></p><p><b>sequence</b>: 9</p><p><b>category</b>: Compound Code <span style=\"background: LightGoldenRodYellow; margin: 4px; border: 1px solid khaki\"> (<a href=\"CodeSystem-C4BBSupportingInfoType.html\">C4BB Supporting Info Type Code System</a>#compoundcode)</span></p><p><b>code</b>: Dummy <span style=\"background: LightGoldenRodYellow; margin: 4px; border: 1px solid khaki\"> (<a href=\"http://terminology.hl7.org/4.0.0/CodeSystem-NCPDPCompoundCode.html\">NCPDP Compound Code</a>#Dummy)</span></p></blockquote><h3>Insurances</h3><table class=\"grid\"><tr><td>-</td><td><b>Focal</b></td><td><b>Coverage</b></td></tr><tr><td>*</td><td>true</td><td><a href=\"Coverage-c4bb-Coverage.html\">Coverage/c4bb-Coverage</a></td></tr></table><blockquote><p><b>item</b></p><p><b>sequence</b>: 1</p><p><b>productOrService</b>: Prozac, 100 CAPSULE in 1 BOTTLE (0777-3105-02) (package) <span style=\"background: LightGoldenRodYellow; margin: 4px; border: 1px solid khaki\"> (<a href=\"http://terminology.hl7.org/4.0.0/CodeSystem-v3-ndc.html\">National drug codes</a>#0777-3105-02)</span></p><p><b>serviced</b>: 2019-07-02</p><blockquote><p><b>adjudication</b></p><p><b>category</b>: Submitted Amount <span style=\"background: LightGoldenRodYellow; margin: 4px; border: 1px solid khaki\"> (<a href=\"http://terminology.hl7.org/4.0.0/CodeSystem-adjudication.html\">Adjudication Value Codes</a>#submitted)</span></p><h3>Amounts</h3><table class=\"grid\"><tr><td>-</td><td><b>Value</b></td><td><b>Currency</b></td></tr><tr><td>*</td><td>1000</td><td>USD</td></tr></table></blockquote><blockquote><p><b>adjudication</b></p><p><b>category</b>: Benefit Amount <span style=\"background: LightGoldenRodYellow; margin: 4px; border: 1px solid khaki\"> (<a href=\"http://terminology.hl7.org/4.0.0/CodeSystem-adjudication.html\">Adjudication Value Codes</a>#benefit)</span></p><h3>Amounts</h3><table class=\"grid\"><tr><td>-</td><td><b>Value</b></td><td><b>Currency</b></td></tr><tr><td>*</td><td>20</td><td>USD</td></tr></table></blockquote><blockquote><p><b>adjudication</b></p><p><b>category</b>: Discount <span style=\"background: LightGoldenRodYellow; margin: 4px; border: 1px solid khaki\"> (<a href=\"CodeSystem-C4BBAdjudication.html\">C4BB Adjudication Code System</a>#discount)</span></p><h3>Amounts</h3><table class=\"grid\"><tr><td>-</td><td><b>Value</b></td><td><b>Currency</b></td></tr><tr><td>*</td><td>900</td><td>USD</td></tr></table></blockquote><blockquote><p><b>adjudication</b></p><p><b>category</b>: Member liability <span style=\"background: LightGoldenRodYellow; margin: 4px; border: 1px solid khaki\"> (<a href=\"CodeSystem-C4BBAdjudication.html\">C4BB Adjudication Code System</a>#memberliability)</span></p><h3>Amounts</h3><table class=\"grid\"><tr><td>-</td><td><b>Value</b></td><td><b>Currency</b></td></tr><tr><td>*</td><td>80</td><td>USD</td></tr></table></blockquote><blockquote><p><b>adjudication</b></p><p><b>category</b>: Paid to provider <span style=\"background: LightGoldenRodYellow; margin: 4px; border: 1px solid khaki\"> (<a href=\"CodeSystem-C4BBAdjudication.html\">C4BB Adjudication Code System</a>#paidtoprovider)</span></p><h3>Amounts</h3><table class=\"grid\"><tr><td>-</td><td><b>Value</b></td><td><b>Currency</b></td></tr><tr><td>*</td><td>20</td><td>USD</td></tr></table></blockquote></blockquote><h3>Adjudications</h3><table class=\"grid\"><tr><td>-</td><td><b>Category</b></td><td><b>Reason</b></td></tr><tr><td>*</td><td>Benefit Payment Status <span style=\"background: LightGoldenRodYellow; margin: 4px; border: 1px solid khaki\"> (<a href=\"CodeSystem-C4BBAdjudicationDiscriminator.html\">C4BB Adjudication Discriminator Code System</a>#benefitpaymentstatus)</span></td><td>In Network <span style=\"background: LightGoldenRodYellow; margin: 4px; border: 1px solid khaki\"> (<a href=\"CodeSystem-C4BBPayerAdjudicationStatus.html\">C4BB Payer Adjudication Status Code System</a>#innetwork)</span></td></tr><tr><td>*</td><td>Billing Network Status <span style=\"background: LightGoldenRodYellow; margin: 4px; border: 1px solid khaki\"> (<a href=\"CodeSystem-C4BBAdjudicationDiscriminator.html\">C4BB Adjudication Discriminator Code System</a>#billingnetworkstatus)</span></td><td>In Network <span style=\"background: LightGoldenRodYellow; margin: 4px; border: 1px solid khaki\"> (<a href=\"CodeSystem-C4BBPayerAdjudicationStatus.html\">C4BB Payer Adjudication Status Code System</a>#innetwork)</span></td></tr></table><blockquote><p><b>total</b></p><p><b>category</b>: Payment Amount <span style=\"background: LightGoldenRodYellow; margin: 4px; border: 1px solid khaki\"> (<a href=\"CodeSystem-C4BBAdjudication.html\">C4BB Adjudication Code System</a>#paidtoprovider)</span></p><h3>Amounts</h3><table class=\"grid\"><tr><td>-</td><td><b>Value</b></td><td><b>Currency</b></td></tr><tr><td>*</td><td>620</td><td>USD</td></tr></table></blockquote><blockquote><p><b>total</b></p><p><b>category</b>: Submitted Amount <span style=\"background: LightGoldenRodYellow; margin: 4px; border: 1px solid khaki\"> (<a href=\"http://terminology.hl7.org/4.0.0/CodeSystem-adjudication.html\">Adjudication Value Codes</a>#submitted)</span></p><h3>Amounts</h3><table class=\"grid\"><tr><td>-</td><td><b>Value</b></td><td><b>Currency</b></td></tr><tr><td>*</td><td>2650</td><td>USD</td></tr></table></blockquote><blockquote><p><b>total</b></p><p><b>category</b>: Patient Pay Amount <span style=\"background: LightGoldenRodYellow; margin: 4px; border: 1px solid khaki\"> (<a href=\"CodeSystem-C4BBAdjudication.html\">C4BB Adjudication Code System</a>#paidbypatient)</span></p><h3>Amounts</h3><table class=\"grid\"><tr><td>-</td><td><b>Value</b></td><td><b>Currency</b></td></tr><tr><td>*</td><td>0</td><td>USD</td></tr></table></blockquote></div>"
        },
        "identifier": [
          {
            "type": {
              "coding": [
                {
                  "system": "http://hl7.org/fhir/us/carin-bb/CodeSystem/C4BBIdentifierType",
                  "code": "uc"
                }
              ]
            },
            "system": "https://www.xxxplan.com/fhir/EOBIdentifier",
            "value": "AW123412341234123412341234123412"
          }
        ],
        "status": "active",
        "type": {
          "coding": [
            {
              "system": "http://terminology.hl7.org/CodeSystem/claim-type",
              "code": "pharmacy"
            }
          ],
          "text": "Pharmacy"
        },
        "use": "claim",
        "patient": {
          "reference": "Patient/888"
        },
        "billablePeriod": {
          "start": "2019-10-30",
          "end": "2019-10-31"
        },
        "created": "2019-07-02T00:00:00+00:00",
        "insurer": {
          "reference": "Organization/c4bb-Organization",
          "display": "XXX Health Plan"
        },
        "provider": {
          "reference": "Organization/c4bb-Organization",
          "display": "XXX Health Plan"
        },
        "related": [{
          "relationship": {
            "coding" : [{
              "system" : "http://terminology.hl7.org/CodeSystem/ex-relatedclaimrelationship",
              "code" : "prior"
            }]
          },
          "reference": {
            "type" : {
              "coding" : [{
                "system" : "http://hl7.org/fhir/us/carin-bb/CodeSystem/C4BBIdentifierType",
                "code" : "uc"
              }]
            },
            "system" : "https://www.xxxplan.com/fhir/EOBIdentifier",
            "value" : "AW123412341234123412341234123413"
          }
        }],
        "payee": {
          "type" : {
            "coding" : [{
              "system" : "http://terminology.hl7.org/CodeSystem/payeetype",
              "code" : "other"
            }]
          },
          "party": {
            "reference" : "RelatedPerson/c4bb-RelatedPerson",
            "display" : "Mary Jones"
          }
        },
        "outcome": "partial",
        "careTeam" : [
          {
            "sequence" : 1,
            "provider" : {
              "reference" : "Practitioner/c4bb-Practitioner"
            },
            "role" : {
              "coding" : [
                {
                  "system" : "http://terminology.hl7.org/CodeSystem/claimcareteamrole",
                  "code" : "primary",
                  "display" : "Primary provider"
                }
              ],
              "text" : "The primary care provider"
            }
        }],
        "supportingInfo": [
          {
            "sequence": 8,
            "category": {
              "coding": [
                {
                  "system": "http://hl7.org/fhir/us/carin-bb/CodeSystem/C4BBSupportingInfoType",
                  "code": "dayssupply"
                }
              ]
            },
            "valueQuantity": {
              "value": 30
            }
          },
          {
            "sequence": 6,
            "category": {
              "coding": [
                {
                  "system": "http://hl7.org/fhir/us/carin-bb/CodeSystem/C4BBSupportingInfoType",
                  "code": "dawcode"
                }
              ]
            },
            "code": {
              "coding": [
                {
                  "system": "http://terminology.hl7.org/CodeSystem/NCPDPDispensedAsWrittenOrProductSelectionCode",
                  "code": "7"
                }
              ]
            }
          },
          {
            "sequence": 4,
            "category": {
              "coding": [
                {
                  "system": "http://hl7.org/fhir/us/carin-bb/CodeSystem/C4BBSupportingInfoType",
                  "code": "refillnum"
                }
              ]
            },
            "valueQuantity": {
              "value": 0
            }
          },
          {
            "sequence": 5,
            "category": {
              "coding": [
                {
                  "system": "http://hl7.org/fhir/us/carin-bb/CodeSystem/C4BBSupportingInfoType",
                  "code": "refillsauthorized"
                }
              ]
            },
            "valueQuantity": {
              "value": 0
            }
          },
          {
            "sequence": 2,
            "category": {
              "coding": [
                {
                  "system": "http://hl7.org/fhir/us/carin-bb/CodeSystem/C4BBSupportingInfoType",
                  "code": "brandgenericindicator"
                }
              ]
            },
            "code": {
              "coding": [
                {
                  "system": "http://terminology.hl7.org/CodeSystem/NCPDPBrandGenericIndicator",
                  "code": "2"
                }
              ]
            }
          },
          {
            "sequence": 3,
            "category": {
              "coding": [
                {
                  "system": "http://hl7.org/fhir/us/carin-bb/CodeSystem/C4BBSupportingInfoType",
                  "code": "rxorigincode"
                }
              ]
            },
            "code": {
              "coding": [
                {
                  "system": "http://terminology.hl7.org/CodeSystem/NCPDPPrescriptionOriginCode",
                  "code": "1"
                }
              ]
            }
          },
          {
            "sequence": 7,
            "category": {
              "coding": [
                {
                  "system": "http://hl7.org/fhir/us/carin-bb/CodeSystem/C4BBSupportingInfoType",
                  "code": "clmrecvddate"
                }
              ]
            },
            "timingDate": "2019-10-31"
          },
          {
            "sequence": 9,
            "category": {
              "coding": [
                {
                  "system": "http://hl7.org/fhir/us/carin-bb/CodeSystem/C4BBSupportingInfoType",
                  "code": "compoundcode"
                }
              ]
            },
            "code": {
              "coding": [
                {
                  "system": "http://terminology.hl7.org/CodeSystem/NCPDPCompoundCode",
                  "code": "Dummy"
                }
              ]
            }
          }
        ],
        "insurance": [
          {
            "focal": true,
            "coverage": {
              "reference": "Coverage/c4bb-Coverage"
            }
          }
        ],
        "item": [
          {
            "sequence": 1,
            "productOrService": {
              "coding": [
                {
                  "system": "http://hl7.org/fhir/sid/ndc",
                  "code": "0777-3105-02",
                  "display": "Prozac, 100 CAPSULE in 1 BOTTLE (0777-3105-02) (package)"
                }
              ]
            },
            "servicedDate": "2019-07-02",
            "quantity": {
              "value": 2,
              "unit": "services"
        
            },
            "noteNumber": [1],
            "adjudication": [
              {
                "category": {
                  "coding": [
                    {
                      "system": "http://terminology.hl7.org/CodeSystem/adjudication",
                      "code": "submitted"
                    }
                  ]
                },
                "amount": {
                  "value": 1000,
                  "currency": "USD"
                }
              },
              {
                "category": {
                  "coding": [
                    {
                      "system": "http://terminology.hl7.org/CodeSystem/adjudication",
                      "code": "benefit"
                    }
                  ]
                },
                "amount": {
                  "value": 20,
                  "currency": "USD"
                }
              },
              {
                "category": {
                  "coding": [
                    {
                      "system": "http://hl7.org/fhir/us/carin-bb/CodeSystem/C4BBAdjudication",
                      "code": "discount"
                    }
                  ]
                },
                "amount": {
                  "value": 900,
                  "currency": "USD"
                }
              },
              {
                "category": {
                  "coding": [
                    {
                      "system": "http://hl7.org/fhir/us/carin-bb/CodeSystem/C4BBAdjudication",
                      "code": "memberliability"
                    }
                  ]
                },
                "amount": {
                  "value": 80,
                  "currency": "USD"
                }
              },
              {
                "category": {
                  "coding": [
                    {
                      "system": "http://hl7.org/fhir/us/carin-bb/CodeSystem/C4BBAdjudication",
                      "code": "paidtoprovider"
                    }
                  ]
                },
                "amount": {
                  "value": 20,
                  "currency": "USD"
                }
              },
              {
                "category": {
                  "coding": [
                    {
                      "system": "http://hl7.org/fhir/us/carin-bb/CodeSystem/C4BBAdjudicationDiscriminator",
                      "code": "rejectreason"
                    }
                  ]
                },
                "reason": {
                  "coding": [
                    {
                      "system": "http://terminology.hl7.org/CodeSystem/NCPDPRejectCode",
                      "code": "62"
                    }
                  ]
                }
              }
            ],
            "detail": [{
              "sequence": 2,
              "productOrService": {
                "coding": [
                  {
                    "system": "http://hl7.org/fhir/sid/ndc",
                    "code": "0777-3105-02",
                    "display": "Prozac, 100 CAPSULE in 1 BOTTLE (0777-3105-02) (package)"
                  }
                ]
              },
              "quantity": {
                "value": 1,
                "unit": "product"
          
              }
            }]
          }
        ],
        "adjudication": [
          {
            "category": {
              "coding": [
                {
                  "system": "http://hl7.org/fhir/us/carin-bb/CodeSystem/C4BBAdjudicationDiscriminator",
                  "code": "benefitpaymentstatus"
                }
              ]
            },
            "reason": {
              "coding": [
                {
                  "system": "http://hl7.org/fhir/us/carin-bb/CodeSystem/C4BBPayerAdjudicationStatus",
                  "code": "innetwork"
                }
              ]
            }
          },
          {
            "category": {
              "coding": [
                {
                  "system": "http://hl7.org/fhir/us/carin-bb/CodeSystem/C4BBAdjudicationDiscriminator",
                  "code": "billingnetworkstatus"
                }
              ]
            },
            "reason": {
              "coding": [
                {
                  "system": "http://hl7.org/fhir/us/carin-bb/CodeSystem/C4BBPayerAdjudicationStatus",
                  "code": "innetwork"
                }
              ]
            }
          }
        ],
        "total": [
          {
            "category": {
              "coding": [
                {
                  "system": "http://hl7.org/fhir/us/carin-bb/CodeSystem/C4BBAdjudication",
                  "code": "paidtoprovider"
                }
              ],
              "text": "Payment Amount"
            },
            "amount": {
              "value": 620,
              "currency": "USD"
            }
          },
          {
            "category": {
              "coding": [
                {
                  "system": "http://terminology.hl7.org/CodeSystem/adjudication",
                  "code": "submitted"
                }
              ],
              "text": "Submitted Amount"
            },
            "amount": {
              "value": 2650,
              "currency": "USD"
            }
          },
          {
            "category": {
              "coding": [
                {
                  "system": "http://hl7.org/fhir/us/carin-bb/CodeSystem/C4BBAdjudication",
                  "code": "paidbypatient"
                }
              ],
              "text": "Patient Pay Amount"
            },
            "amount": {
              "value": 0,
              "currency": "USD"
            }
          }
        ],
        "payment": {
          "type" : {
            "coding": [
              {
                "system": "http://hl7.org/fhir/us/carin-bb/CodeSystem/C4BBPayerAdjudicationStatus",
                "code": "paid"
              }
            ]
          },
          "date" : "2017-05-23"
        },
        "processNote": [{
          "text": "Note explanatory text"
        }]
      },
      "request": {
        "method": "PUT",
        "url": "ExplanationOfBenefit/c4bb-EOBPharmacy"
      }
    },
    {
      "resource": {
        "resourceType": "ExplanationOfBenefit",
        "id": "c4bb-EOBProfessional",
        "meta": {
          "lastUpdated": "2019-12-12T09:14:11+00:00",
          "profile": [
            "http://hl7.org/fhir/us/carin-bb/StructureDefinition/C4BB-ExplanationOfBenefit-Professional-NonClinician|2.0.0"
          ]
        },
        "language": "en-US",
        "text": {
          "status": "generated",
          "div": "<div xmlns=\"http://www.w3.org/1999/xhtml\" xml:lang=\"en-US\" lang=\"en-US\"><p><b>Generated Narrative: ExplanationOfBenefit</b><a name=\"c4bb-EOBProfessional\"> </a></p><div style=\"display: inline-block; background-color: #d9e0e7; padding: 6px; margin: 4px; border: 1px solid #8da1b4; border-radius: 5px; line-height: 60%\"><p style=\"margin-bottom: 0px\">Resource ExplanationOfBenefit &quot;c4bb-EOBProfessional&quot; Updated &quot;2019-12-12 09:14:11+0000&quot;  (Language &quot;en-US&quot;) </p><p style=\"margin-bottom: 0px\">Profile: <a href=\"StructureDefinition-C4BB-ExplanationOfBenefit-Professional-NonClinician.html\">C4BB ExplanationOfBenefit Professional NonClinician (version 2.0.0)</a></p></div><p><b>identifier</b>: Unique Claim ID: AW123412341234123412341234123413</p><p><b>status</b>: active</p><p><b>type</b>: Professional <span style=\"background: LightGoldenRodYellow; margin: 4px; border: 1px solid khaki\"> (<a href=\"http://terminology.hl7.org/4.0.0/CodeSystem-claim-type.html\">Claim Type Codes</a>#professional)</span></p><p><b>use</b>: claim</p><p><b>patient</b>: <a href=\"Patient-888.html\">Patient/888</a> &quot; TEST&quot;</p><p><b>billablePeriod</b>: 2019-01-01 --&gt; 2019-10-31</p><p><b>created</b>: 2019-07-02 12:00:00+0000</p><p><b>insurer</b>: <a href=\"Organization-c4bb-Organization.html\">Organization/c4bb-Organization: XXX Health Plan</a> &quot;Organization Payer 1&quot;</p><p><b>provider</b>: <a href=\"Organization-c4bb-Organization.html\">Organization/c4bb-Organization: XXX Health Plan</a> &quot;Orange Medical Group&quot;</p><p><b>outcome</b>: partial</p><blockquote><p><b>supportingInfo</b></p><p><b>sequence</b>: 3</p><p><b>category</b>: Claim Received Date <span style=\"background: LightGoldenRodYellow; margin: 4px; border: 1px solid khaki\"> (<a href=\"CodeSystem-C4BBSupportingInfoType.html\">C4BB Supporting Info Type Code System</a>#clmrecvddate)</span></p><p><b>timing</b>: 2011-05-30</p></blockquote><blockquote><p><b>supportingInfo</b></p><p><b>sequence</b>: 4</p><p><b>category</b>: Service Facility <span style=\"background: LightGoldenRodYellow; margin: 4px; border: 1px solid khaki\"> (<a href=\"CodeSystem-C4BBSupportingInfoType.html\">C4BB Supporting Info Type Code System</a>#servicefacility)</span></p><p><b>value</b>: <a href=\"Organization-c4bb-Organization.html\">Organization/c4bb-Organization</a> &quot;Orange Medical Group&quot;</p></blockquote><blockquote><p><b>supportingInfo</b></p><p><b>sequence</b>: 5</p><p><b>category</b>: Medical Record Number <span style=\"background: LightGoldenRodYellow; margin: 4px; border: 1px solid khaki\"> (<a href=\"CodeSystem-C4BBSupportingInfoType.html\">C4BB Supporting Info Type Code System</a>#medicalrecordnumber)</span></p><p><b>value</b>: 1234-234-1243-12345678901m</p></blockquote><blockquote><p><b>supportingInfo</b></p><p><b>sequence</b>: 6</p><p><b>category</b>: Patient Account Number <span style=\"background: LightGoldenRodYellow; margin: 4px; border: 1px solid khaki\"> (<a href=\"CodeSystem-C4BBSupportingInfoType.html\">C4BB Supporting Info Type Code System</a>#patientaccountnumber)</span></p><p><b>value</b>: 1234-234-1243-12345678901a</p></blockquote><h3>Diagnoses</h3><table class=\"grid\"><tr><td>-</td><td><b>Sequence</b></td><td><b>Diagnosis[x]</b></td><td><b>Type</b></td></tr><tr><td>*</td><td>1</td><td>Concussion w LOC of 30 minutes or less, init <span style=\"background: LightGoldenRodYellow; margin: 4px; border: 1px solid khaki\"> (<a href=\"http://terminology.hl7.org/4.0.0/CodeSystem-icd10CM.html\">International Classification of Diseases, 10th Revision, Clinical Modification (ICD-10-CM)</a>#S06.0X1A)</span></td><td>Principal Diagnosis <span style=\"background: LightGoldenRodYellow; margin: 4px; border: 1px solid khaki\"> (<a href=\"http://terminology.hl7.org/4.0.0/CodeSystem-ex-diagnosistype.html\">Example Diagnosis Type Codes</a>#principal)</span></td></tr></table><h3>Insurances</h3><table class=\"grid\"><tr><td>-</td><td><b>Focal</b></td><td><b>Coverage</b></td></tr><tr><td>*</td><td>true</td><td><a href=\"Coverage-c4bb-Coverage.html\">Coverage/c4bb-Coverage</a></td></tr></table><blockquote><p><b>item</b></p><p><b>sequence</b>: 1</p><p><b>productOrService</b>: Physical Therapy <span style=\"background: LightGoldenRodYellow; margin: 4px; border: 1px solid khaki\"> (<a href=\"http://terminology.hl7.org/4.0.0/CodeSystem-CPT.html\">Current Procedural Terminology (CPT)</a>#97110)</span></p><p><b>serviced</b>: 2019-07-02</p><p><b>location</b>: Office <span style=\"background: LightGoldenRodYellow; margin: 4px; border: 1px solid khaki\"> (<a href=\"http://terminology.hl7.org/4.0.0/CodeSystem-CMSPlaceofServiceCodes.html\">CMS Place of Service Codes (POS)</a>#11)</span></p><blockquote><p><b>adjudication</b></p><p><b>category</b>: Benefit Payment Status <span style=\"background: LightGoldenRodYellow; margin: 4px; border: 1px solid khaki\"> (<a href=\"CodeSystem-C4BBAdjudicationDiscriminator.html\">C4BB Adjudication Discriminator Code System</a>#benefitpaymentstatus)</span></p><p><b>reason</b>: Other <span style=\"background: LightGoldenRodYellow; margin: 4px; border: 1px solid khaki\"> (<a href=\"CodeSystem-C4BBPayerAdjudicationStatus.html\">C4BB Payer Adjudication Status Code System</a>#other)</span></p></blockquote><blockquote><p><b>adjudication</b></p><p><b>category</b>: Submitted Amount <span style=\"background: LightGoldenRodYellow; margin: 4px; border: 1px solid khaki\"> (<a href=\"http://terminology.hl7.org/4.0.0/CodeSystem-adjudication.html\">Adjudication Value Codes</a>#submitted)</span></p><h3>Amounts</h3><table class=\"grid\"><tr><td>-</td><td><b>Value</b></td><td><b>Currency</b></td></tr><tr><td>*</td><td>1000</td><td>USD</td></tr></table></blockquote></blockquote><h3>Adjudications</h3><table class=\"grid\"><tr><td>-</td><td><b>Category</b></td><td><b>Reason</b></td></tr><tr><td>*</td><td>Billing Network Status <span style=\"background: LightGoldenRodYellow; margin: 4px; border: 1px solid khaki\"> (<a href=\"CodeSystem-C4BBAdjudicationDiscriminator.html\">C4BB Adjudication Discriminator Code System</a>#billingnetworkstatus)</span></td><td>In Network <span style=\"background: LightGoldenRodYellow; margin: 4px; border: 1px solid khaki\"> (<a href=\"CodeSystem-C4BBPayerAdjudicationStatus.html\">C4BB Payer Adjudication Status Code System</a>#innetwork)</span></td></tr><tr><td>*</td><td>Rendering Network Status <span style=\"background: LightGoldenRodYellow; margin: 4px; border: 1px solid khaki\"> (<a href=\"CodeSystem-C4BBAdjudicationDiscriminator.html\">C4BB Adjudication Discriminator Code System</a>#renderingnetworkstatus)</span></td><td>In Network <span style=\"background: LightGoldenRodYellow; margin: 4px; border: 1px solid khaki\"> (<a href=\"CodeSystem-C4BBPayerAdjudicationStatus.html\">C4BB Payer Adjudication Status Code System</a>#innetwork)</span></td></tr></table><blockquote><p><b>total</b></p><p><b>category</b>: Payment Amount <span style=\"background: LightGoldenRodYellow; margin: 4px; border: 1px solid khaki\"> (<a href=\"CodeSystem-C4BBAdjudication.html\">C4BB Adjudication Code System</a>#paidtoprovider)</span></p><h3>Amounts</h3><table class=\"grid\"><tr><td>-</td><td><b>Value</b></td><td><b>Currency</b></td></tr><tr><td>*</td><td>620</td><td>USD</td></tr></table></blockquote><blockquote><p><b>total</b></p><p><b>category</b>: Submitted Amount <span style=\"background: LightGoldenRodYellow; margin: 4px; border: 1px solid khaki\"> (<a href=\"http://terminology.hl7.org/4.0.0/CodeSystem-adjudication.html\">Adjudication Value Codes</a>#submitted)</span></p><h3>Amounts</h3><table class=\"grid\"><tr><td>-</td><td><b>Value</b></td><td><b>Currency</b></td></tr><tr><td>*</td><td>2650</td><td>USD</td></tr></table></blockquote><blockquote><p><b>total</b></p><p><b>category</b>: Patient Pay Amount <span style=\"background: LightGoldenRodYellow; margin: 4px; border: 1px solid khaki\"> (<a href=\"CodeSystem-C4BBAdjudication.html\">C4BB Adjudication Code System</a>#paidbypatient)</span></p><h3>Amounts</h3><table class=\"grid\"><tr><td>-</td><td><b>Value</b></td><td><b>Currency</b></td></tr><tr><td>*</td><td>0</td><td>USD</td></tr></table></blockquote></div>"
        },
        "identifier": [
          {
            "type": {
              "coding": [
                {
                  "system": "http://hl7.org/fhir/us/carin-bb/CodeSystem/C4BBIdentifierType",
                  "code": "uc"
                }
              ]
            },
            "system": "https://www.xxxplan.com/fhir/EOBIdentifier",
            "value": "AW123412341234123412341234123413"
          }
        ],
        "status": "active",
        "type": {
          "coding": [
            {
              "system": "http://terminology.hl7.org/CodeSystem/claim-type",
              "code": "professional"
            }
          ],
          "text": "Professional"
        },
        "use": "claim",
        "patient": {
          "reference": "Patient/888"
        },
        "billablePeriod": {
          "start": "2019-01-01",
          "end": "2019-10-31"
        },
        "created": "2019-07-02T00:00:00+00:00",
        "insurer": {
          "reference": "Organization/c4bb-Organization",
          "display": "XXX Health Plan"
        },
        "provider": {
          "reference": "Organization/c4bb-Organization",
          "display": "XXX Health Plan"
        },
        "related": [{
          "relationship": {
            "coding" : [{
              "system" : "http://terminology.hl7.org/CodeSystem/ex-relatedclaimrelationship",
              "code" : "prior"
            }]
          },
          "reference": {
            "type" : {
              "coding" : [{
                "system" : "http://hl7.org/fhir/us/carin-bb/CodeSystem/C4BBIdentifierType",
                "code" : "uc"
              }]
            },
            "system" : "https://www.xxxplan.com/fhir/EOBIdentifier",
            "value" : "AW123412341234123412341234123413"
          }
        }],
        "payee": {
          "type" : {
            "coding" : [{
              "system" : "http://terminology.hl7.org/CodeSystem/payeetype",
              "code" : "other"
            }]
          },
          "party": {
            "reference" : "RelatedPerson/c4bb-RelatedPerson",
            "display" : "Mary Jones"
          }
        },
        "careTeam" : [
          {
            "sequence" : 1,
            "provider" : {
              "reference" : "Practitioner/c4bb-Practitioner"
            },
            "role" : {
              "coding" : [
                {
                  "system" : "http://terminology.hl7.org/CodeSystem/claimcareteamrole",
                  "code" : "primary",
                  "display" : "Primary provider"
                }
              ],
              "text" : "The primary care provider"
            }
        }],
        "outcome": "partial",
        "supportingInfo": [
          {
            "sequence": 3,
            "category": {
              "coding": [
                {
                  "system": "http://hl7.org/fhir/us/carin-bb/CodeSystem/C4BBSupportingInfoType",
                  "code": "clmrecvddate"
                }
              ]
            },
            "timingDate": "2011-05-30"
          },
          {
            "sequence": 4,
            "category": {
              "coding": [
                {
                  "system": "http://hl7.org/fhir/us/carin-bb/CodeSystem/C4BBSupportingInfoType",
                  "code": "servicefacility"
                }
              ]
            },
            "valueReference": {
              "reference": "Organization/c4bb-Organization"
            }
          },
          {
            "sequence": 5,
            "category": {
              "coding": [
                {
                  "system": "http://hl7.org/fhir/us/carin-bb/CodeSystem/C4BBSupportingInfoType",
                  "code": "medicalrecordnumber"
                }
              ]
            },
            "valueString": "1234-234-1243-12345678901m"
          },
          {
            "sequence": 6,
            "category": {
              "coding": [
                {
                  "system": "http://hl7.org/fhir/us/carin-bb/CodeSystem/C4BBSupportingInfoType",
                  "code": "patientaccountnumber"
                }
              ]
            },
            "valueString": "1234-234-1243-12345678901a"
          },
          {
            "sequence" : 7,
            "category" : {
              "coding" : [
                {
                  "system" : "http://hl7.org/fhir/us/carin-bb/CodeSystem/C4BBSupportingInfoType",
                  "code" : "patientweight"
                }
              ]
            },
            "valueQuantity" : {
              "value" : 160,
              "unit" : "[lb_av]",
              "system" : "http://unitsofmeasure.org"
            }
          },
          {
            "sequence" : 8,
            "category" : {
              "coding" : [
                {
                  "system" : "http://hl7.org/fhir/us/carin-bb/CodeSystem/C4BBSupportingInfoType",
                  "code" : "ambulancetransportreason"
                }
              ]
            },
            "reason" : {
              "system" : "https://x12.org/codesystem.x12.org/ambulance-transport-reason-codes",
              "code" : "B",
              "display" : "Patient was transported for the benefit of a preferred physician"
            }
          },
          {
            "sequence" : 9,
            "category" : {
              "coding" : [
                {
                  "system" : "http://hl7.org/fhir/us/carin-bb/CodeSystem/C4BBSupportingInfoType",
                  "code" : "transportationdistance"
                }
              ]
            },
            "valueQuantity" : {
              "value" : 21,
              "unit" : "[mi_i]",
              "system" : "http://unitsofmeasure.org"
            }
          },
          {
            "sequence" : 10,
            "category" : {
              "coding" : [
                {
                  "system" : "http://hl7.org/fhir/us/carin-bb/CodeSystem/C4BBSupportingInfoType",
                  "code" : "transportationdistance"
                }
              ]
            },
            "valueQuantity" : {
              "value" : 22,
              "unit" : "[mi_i]",
              "system" : "http://unitsofmeasure.org"
            }
          },
          {
            "sequence" : 11,
            "category" : {
              "coding" : [
                {
                  "system" : "http://hl7.org/fhir/us/carin-bb/CodeSystem/C4BBSupportingInfoType",
                  "code" : "roudtrippurpose"
                }
              ]
            },
            "valueString" : "Trip to facility and then back home"
          },
          {
            "sequence" : 12,
            "category" : {
              "coding" : [
                {
                  "system" : "http://hl7.org/fhir/us/carin-bb/CodeSystem/C4BBSupportingInfoType",
                  "code" : "stretcherpurpose"
                }
              ]
            },
            "valueString" : "Patient could not walk"
          },
          {
            "sequence" : 13,
            "category" : {
              "coding" : [
                {
                  "system" : "http://hl7.org/fhir/us/carin-bb/CodeSystem/C4BBSupportingInfoType",
                  "code" : "pickuplocation"
                }
              ]
            },
            "valueString" : "Patient home; Pittsburgh; PA,15222"
          },
          {
            "sequence" : 14,
            "category" : {
              "coding" : [
                {
                  "system" : "http://hl7.org/fhir/us/carin-bb/CodeSystem/C4BBSupportingInfoType",
                  "code" : "dropofflocation"
                }
              ]
            },
            "valueString" : "Orange Medical Group; Pittsburgh; PA,15222"
          },
          {
            "sequence" : 15,
            "category" : {
              "coding" : [
                {
                  "system" : "http://hl7.org/fhir/us/carin-bb/CodeSystem/C4BBSupportingInfoType",
                  "code" : "pickuplocation"
                }
              ]
            },
            "valueString" : "Orange Medical Group; Pittsburgh; PA,15222"
          },
          {
            "sequence" : 16,
            "category" : {
              "coding" : [
                {
                  "system" : "http://hl7.org/fhir/us/carin-bb/CodeSystem/C4BBSupportingInfoType",
                  "code" : "dropofflocation"
                }
              ]
            },
            "valueString" : "Patient home; Pittsburgh; PA,15222"
          }
        ],
        "diagnosis": [
          {
            "sequence": 1,
            "diagnosisCodeableConcept": {
              "coding": [
                {
                  "system": "http://hl7.org/fhir/sid/icd-10-cm",
                  "code": "S06.0X1A"
                }
              ]
            },
            "type": [
              {
                "coding": [
                  {
                    "system": "http://terminology.hl7.org/CodeSystem/ex-diagnosistype",
                    "code": "principal"
                  }
                ]
              }
            ]
          }
        ],
        "insurance": [
          {
            "focal": true,
            "coverage": {
              "reference": "Coverage/c4bb-Coverage"
            }
          }
        ],
        "item": [
          {
            "sequence": 1,
            "informationSequence": [3, 4, 5, 6, 7, 8, 9, 10, 11, 12, 13, 14, 15, 16],
            "productOrService" : {
              "coding" : [
                {
                  "system" : "http://www.ama-assn.org/go/cpt",
                  "code" : "99231"
                }
              ]
            },
            "servicedDate": "2019-07-02",
            "locationCodeableConcept": {
              "coding": [
                {
                  "system": "https://www.cms.gov/Medicare/Coding/place-of-service-codes/Place_of_Service_Code_Set",
                  "code": "11",
                  "display": "Office"
                }
              ]
            },
            "modifier" : [{
              "coding" : [{
                "system" : "https://www.cms.gov/Medicare/Coding/HCPCSReleaseCodeSets",
                "code" : "A1"
              }]
            }],
            "quantity": {
              "value": 2,
              "unit": "services"
        
            },
            "noteNumber": [1],
            "adjudication": [
              {
                "category": {
                  "coding": [
                    {
                      "system": "http://hl7.org/fhir/us/carin-bb/CodeSystem/C4BBAdjudicationDiscriminator",
                      "code": "benefitpaymentstatus"
                    }
                  ]
                },
                "reason": {
                  "coding": [
                    {
                      "system": "http://hl7.org/fhir/us/carin-bb/CodeSystem/C4BBPayerAdjudicationStatus",
                      "code": "other"
                    }
                  ]
                }
              },
              {
                "category" : {
                  "coding" : [{
                    "system" : "http://hl7.org/fhir/us/carin-bb/CodeSystem/C4BBAdjudicationDiscriminator",
                    "code" : "adjustmentreason"
                  }]
                },
                "reason" : {
                  "coding" : [{
                    "system" : "https://x12.org/codes/claim-adjustment-reason-codes",
                    "code" : "21"
                  }]
                }
              },
              {
                "category" : {
                  "coding" : [{
                    "system" : "http://hl7.org/fhir/us/carin-bb/CodeSystem/C4BBAdjudicationDiscriminator",
                    "code" : "allowedunits"
                  }]
                },
                "value" : 2
              },
              {
                "category": {
                  "coding": [
                    {
                      "system": "http://terminology.hl7.org/CodeSystem/adjudication",
                      "code": "submitted"
                    }
                  ]
                },
                "amount": {
                  "value": 1000,
                  "currency": "USD"
                }
              }
            ]
          }
        ],
        "adjudication": [
          {
            "category": {
              "coding": [
                {
                  "system": "http://hl7.org/fhir/us/carin-bb/CodeSystem/C4BBAdjudicationDiscriminator",
                  "code": "billingnetworkstatus"
                }
              ]
            },
            "reason": {
              "coding": [
                {
                  "system": "http://hl7.org/fhir/us/carin-bb/CodeSystem/C4BBPayerAdjudicationStatus",
                  "code": "innetwork"
                }
              ]
            }
          },
          {
            "category": {
              "coding": [
                {
                  "system": "http://hl7.org/fhir/us/carin-bb/CodeSystem/C4BBAdjudicationDiscriminator",
                  "code": "renderingnetworkstatus"
                }
              ]
            },
            "reason": {
              "coding": [
                {
                  "system": "http://hl7.org/fhir/us/carin-bb/CodeSystem/C4BBPayerAdjudicationStatus",
                  "code": "innetwork"
                }
              ]
            }
          }
        ],
        "total": [
          {
            "category": {
              "coding": [
                {
                  "system": "http://hl7.org/fhir/us/carin-bb/CodeSystem/C4BBAdjudication",
                  "code": "paidtoprovider"
                }
              ],
              "text": "Payment Amount"
            },
            "amount": {
              "value": 620,
              "currency": "USD"
            }
          },
          {
            "category": {
              "coding": [
                {
                  "system": "http://terminology.hl7.org/CodeSystem/adjudication",
                  "code": "submitted"
                }
              ],
              "text": "Submitted Amount"
            },
            "amount": {
              "value": 2650,
              "currency": "USD"
            }
          },
          {
            "category": {
              "coding": [
                {
                  "system": "http://hl7.org/fhir/us/carin-bb/CodeSystem/C4BBAdjudication",
                  "code": "paidbypatient"
                }
              ],
              "text": "Patient Pay Amount"
            },
            "amount": {
              "value": 0,
              "currency": "USD"
            }
          }
        ],
        "payment": {
          "type" : {
            "coding": [
              {
                "system": "http://hl7.org/fhir/us/carin-bb/CodeSystem/C4BBPayerAdjudicationStatus",
                "code": "paid"
              }
            ]
          },
          "date" : "2017-05-23"
        },
        "processNote": [{
          "text": "Note explanatory text"
        }]
      },
      "request": {
        "method": "PUT",
        "url": "ExplanationOfBenefit/c4bb-EOBProfessional"
      }
    }
  ],
  "resourceType": "Bundle"
}