{
  "type": "transaction",
  "entry": [
    {
      "fullUrl": "urn:uuid:a803b77d-ec8e-45a0-a615-12c5e3894aa8",
      "resource": {
        "resourceType": "Patient",
        "id": "pat015",
        "gender": "male",
        "birthDate": "2015-02-23",
        "address": [
          {
            "use": "home",
            "type": "both",
            "state": "MA",
            "city": "Bedford",
            "postalCode": "01730",
            "line": ["202 Burlington Road"]
          }
        ],
        "name": [
          {
            "use": "official",
            "family": "Oster",
            "given": ["William", "Hale", "Oster"]
          }
        ],
        "telecom": [
          {
            "system": "phone",
            "value": "(781) 555-5555",
            "use": "home",
            "rank": 1
          },
          {
            "system": "phone",
            "value": "(781) 555 5613",
            "use": "work",
            "rank": 2
          },
          {
            "system": "phone",
            "value": "(781) 555 8834",
            "use": "old",
            "period": {
              "end": "2014"
            }
          }
        ],
        "identifier": [
          {
            "use": "usual",
            "type": {
              "coding": [
                {
                  "system": "http://terminology.hl7.org/CodeSystem/v2-0203",
                  "code": "MR"
                }
              ],
              "text": "Medical Record Number"
            },
            "system": "http://hl7.org/fhir/sid/us-medicare",
            "value": "0M34355006FW"
          }
        ]
      },
      "request": {
        "method": "PUT",
        "url": "Patient/pat015"
      }
    },
    {
      "fullUrl": "urn:uuid:386eaa15-5b50-40db-a35e-d44223dce772",
      "resource": {
        "resourceType": "Practitioner",
        "id": "pra1234",
        "meta": {
          "profile": [
            "http://hl7.org/fhir/us/core/StructureDefinition/us-core-practitioner"
          ]
        },
        "identifier": [
          {
            "system": "http://hl7.org/fhir/sid/us-npi",
            "value": "1122334455"
          }
        ],
        "address": [
          {
            "use": "home",
            "type": "both",
            "state": "NY",
            "city": "Buffalo",
            "postalCode": "14210",
            "line": ["840 Seneca St"]
          }
        ],
        "telecom": [
          {
            "system": "phone",
            "value": "716-873-1557"
          },
          {
            "system": "email",
            "value": "jane.betty@myhospital.com"
          }
        ],
        "name": [
          {
            "use": "official",
            "family": "Doe",
            "given": ["Jane", "Betty"],
            "prefix": ["Dr."]
          }
        ],
        "qualification": [
          {
            "code": {
              "coding": [
                {
                  "system": "http://terminology.hl7.org/CodeSystem/v2-0360",
                  "code": "MD",
                  "display": "Doctor of Medicine"
                }
              ],
              "text": "Doctor of Medicine"
            },
            "period": {
              "start": "1995"
            },
            "issuer": {
              "display": "Example University"
            }
          }
        ]
      },
      "request": {
        "method": "PUT",
        "url": "Practitioner/pra1234"
      }
    },
    {
      "fullUrl": "urn:uuid:6445c614-9784-4cfa-aed7-9fa52c5fe819",
      "resource": {
        "resourceType": "Coverage",
        "id": "cov015",
        "subscriberId": "10A3D58WH456",
        "beneficiary": {
          "reference": "Patient/pat015"
        },
        "status": "active",
        "class": [
          {
            "type": {
              "coding": [
                {
                  "system": "http://terminology.hl7.org/CodeSystem/coverage-class",
                  "code": "plan"
                }
              ]
            },
            "value": "Medicare Part A"
          }
        ],
        "payor": [
          {
            "reference": "Organization/org1234"
          }
        ]
      },
      "request": {
        "method": "PUT",
        "url": "Coverage/cov015"
      }
    },
    {
      "fullUrl": "urn:uuid:f5ce3ebe-4a6b-4cee-a689-3efeb51f576c",
      "resource": {
        "resourceType": "Encounter",
        "id": "pat015-rad-encounter",
        "status": "finished",
        "class": {
          "system": "http://terminology.hl7.org/CodeSystem/v3-ActCode",
          "code": "HH",
          "display": "home health"
        },
        "type": [
          {
            "coding": [
              {
                "system": "http://snomed.info/sct",
                "code": "185345009",
                "display": "Encounter for symptom"
              }
            ]
          }
        ],
        "priority": {
          "coding": [
            {
              "system": "http://snomed.info/sct",
              "code": "709122007",
              "display": "As soon as possible (qualifier value)"
            }
          ]
        },
        "subject": {
          "reference": "Patient/pat015",
          "display": "Roosevelt Theodore"
        },
        "participant": [
          {
            "individual": {
              "reference": "Practitioner/pra1234",
              "display": "Dr. Jane Doe"
            },
            "type": [
              {
                "coding": [
                  {
                    "system": "http://terminology.hl7.org/CodeSystem/v3-ParticipationType",
                    "code": "PPRF",
                    "display": "primary performer"
                  }
                ]
              }
            ]
          }
        ],
        "length": {
          "value": 56,
          "unit": "minutes",
          "system": "http://unitsofmeasure.org",
          "code": "min"
        },
        "period": {
          "start": "2020-07-01T10:40:10+01:00",
          "end": "2020-07-01T12:40:10+01:00"
        },
        "reasonCode": [
          {
            "coding": [
              {
                "system": "http://hl7.org/fhir/sid/icd-10-cm",
                "code": "J44.9",
                "display": "Chronic obstructive pulmonary disease, unspecified"
              }
            ]
          }
        ],
        "diagnosis": [
          {
            "condition": {
              "reference": "Condition/cond015a",
              "display": "The patient is hospitalized for stroke"
            },
            "use": {
              "coding": [
                {
                  "system": "http://terminology.hl7.org/CodeSystem/diagnosis-role",
                  "code": "AD",
                  "display": "Admission diagnosis"
                }
              ]
            },
            "rank": 2
          },
          {
            "condition": {
              "reference": "Condition/cond015a",
              "display": "The patient is hospitalized for lung condition"
            },
            "use": {
              "coding": [
                {
                  "system": "http://terminology.hl7.org/CodeSystem/diagnosis-role",
                  "code": "CC",
                  "display": "Chief complaint"
                }
              ]
            },
            "rank": 1
          }
        ],
        "location": [
          {
            "location": {
              "display": "observation2c"
            }
          }
        ]
      },
      "request": {
        "method": "PUT",
        "url": "Encounter/pat015-rad-encounter"
      }
    },
    {
      "fullUrl": "urn:uuid:e1890654-16cd-40f0-bb5b-69c0a3f77842",
      "resource": {
        "resourceType": "DeviceRequest",
        "id": "devreqe0470",
        "status": "draft",
        "meta": {
          "profile": [
            "http://hl7.org/fhir/us/davinci-crd/StructureDefinition/profile-devicerequest-r4"
          ]
        },
        "insurance": [
          {
            "reference": "Coverage/cov015"
          }
        ],
        "codeCodeableConcept": {
          "coding": [
            {
              "system": "https://bluebutton.cms.gov/resources/codesystem/hcpcs",
              "code": "E0470",
              "display": "Respiratory Assist Device"
            }
          ]
        },
        "subject": {
          "reference": "Patient/pat015"
        },
        "authoredOn": "2020-03-08",
        "performer": {
          "reference": "Practitioner/pra1234"
        },
        "encounter": {
          "reference": "Encounter/pat015-rad-encounter"
        },
        "intent": "original-order",
        "instantiatesCanonical": [
          "http://hapi.fhir.org/baseR4/PlanDefinition/1430"
        ],
        "requester": {
          "reference": "Practitioner/pra1234"
        }
      },
      "request": {
        "method": "PUT",
        "url": "DeviceRequest/devreqe0470"
      }
    },
    {
      "fullUrl": "urn:uuid:87d17e84-5558-41a8-8374-74e4e9a9c502",
      "resource": {
        "resourceType": "DeviceRequest",
        "id": "devreq015",
        "meta": {
          "profile": [
            "http://hl7.org/fhir/us/davinci-crd/R4/StructureDefinition/profile-devicerequest-r4"
          ]
        },
        "insurance": [
          {
            "reference": "Coverage/cov015"
          }
        ],
        "status": "draft",
        "codeCodeableConcept": {
          "coding": [
            {
              "system": "https://bluebutton.cms.gov/resources/codesystem/hcpcs",
              "code": "E0424",
              "display": "Stationary Compressed Gaseous Oxygen System, Rental"
            }
          ]
        },
        "subject": {
          "reference": "Patient/pat015"
        },
        "performer": {
          "reference": "Practitioner/pra1234"
        },
        "intent": "original-order",
        "occurrenceTiming": {
          "repeat": {
            "boundsDuration": {
              "value": 8,
              "unit": "mo",
              "system": "http://unitsofmeasure.org",
              "code": "mo"
            }
          },
          "code": {
            "text": "During sleep AND During exertion"
          }
        },
        "authoredOn": "2023-01-01T00:00:00Z",
        "requester": {
          "reference": "Practitioner/pra-hfairchild"
        }
      },
      "request": {
        "method": "PUT",
        "url": "DeviceRequest/devreq015"
      }
    },
    {
      "fullUrl": "urn:uuid:9dea2274-99b6-4bf9-ba97-60bd14be78ee",
      "resource": {
        "resourceType": "DeviceRequest",
        "id": "devreq-015-e0250",
        "meta": {
          "profile": [
            "http://hl7.org/fhir/us/davinci-crd/R4/StructureDefinition/profile-devicerequest-r4"
          ]
        },
        "insurance": [
          {
            "reference": "Coverage/cov015"
          }
        ],
        "status": "draft",
        "codeCodeableConcept": {
          "coding": [
            {
              "system": "https://bluebutton.cms.gov/resources/codesystem/hcpcs",
              "code": "E0250",
              "display": "Hospital bed fixed height with any type of side rails, mattress"
            }
          ]
        },
        "subject": {
          "reference": "Patient/pat015"
        },
        "performer": {
          "reference": "Practitioner/pra1234"
        },
        "authoredOn": "2023-01-01T00:00:00Z",
        "intent": "original-order",
        "requester": {
          "reference": "Practitioner/pra-hfairchild"
        }
      },
      "request": {
        "method": "PUT",
        "url": "DeviceRequest/devreq-015-e0250"
      }
    },
    {
      "fullUrl": "urn:uuid:94675047-e98c-4f55-a450-bc9ae4aa7b1c",
      "resource": {
        "resourceType": "Observation",
        "id": "obs015-hco3",
        "status": "final",
        "category": [
          {
            "coding": [
              {
                "system": "http://terminology.hl7.org/CodeSystem/observation-category",
                "code": "laboratory",
                "display": "Laboratory"
              }
            ],
            "text": "Laboratory"
          }
        ],
        "code": {
          "coding": [
            {
              "system": "http://loinc.org",
              "code": "1960-4",
              "display": "HCO3 BldA-sCnc"
            }
          ]
        },
        "subject": {
          "reference": "Patient/pat015"
        },
        "issued": "2020-07-01T15:30:10+01:00",
        "valueQuantity": {
          "value": 32,
          "unit": "mmol/L",
          "system": "http://unitsofmeasure.org",
          "code": "mmol/L"
        },
        "encounter": {
          "reference": "Encounter/pat015-rad-encounter"
        },
        "performer": [
          {
            "reference": "Practitioner/pra-dmorgan",
            "display": "Dexter Morgan",
            "type": "Practitioner"
          },
          {
            "reference": "Organization/org-lab",
            "display": "Gulf Coast Lab",
            "type": "Organization"
          }
        ],
        "referenceRange": [
          {
            "low": {
              "value": 23,
              "unit": "mmol/L",
              "system": "http://unitsofmeasure.org",
              "code": "mmol/L"
            },
            "high": {
              "value": 30,
              "unit": "mmol/L",
              "system": "http://unitsofmeasure.org",
              "code": "mmol/L"
            }
          }
        ]
      },
      "request": {
        "method": "PUT",
        "url": "Observation/obs015-hco3"
      }
    },
    {
      "fullUrl": "urn:uuid:a127290b-e1fb-4e4a-96bf-f87d4d2de0a0",
      "resource": {
        "resourceType": "Observation",
        "id": "obs015-o2sat-overnight",
        "status": "final",
        "category": [
          {
            "coding": [
              {
                "system": "http://terminology.hl7.org/CodeSystem/observation-category",
                "code": "laboratory",
                "display": "Laboratory"
              }
            ],
            "text": "Laboratory"
          }
        ],
        "code": {
          "coding": [
            {
              "system": "http://snomed.info/sct",
              "code": "252568001",
              "display": "Overnight pulse oximetry (procedure)"
            }
          ]
        },
        "subject": {
          "reference": "Patient/pat015"
        },
        "issued": "2020-06-15T15:30:10+01:00",
        "valueQuantity": {
          "value": 90,
          "unit": "%",
          "system": "http://unitsofmeasure.org",
          "code": "%"
        },
        "encounter": {
          "reference": "Encounter/pat015-rad-encounter"
        },
        "performer": [
          {
            "reference": "Organization/org-lab",
            "display": "Clinical Lab",
            "type": "Organization"
          }
        ]
      },
      "request": {
        "method": "PUT",
        "url": "Observation/obs015-o2sat-overnight"
      }
    },
    {
      "fullUrl": "urn:uuid:e0d9292e-877f-47ce-849b-55f1d4b5de7c",
      "resource": {
        "resourceType": "Observation",
        "id": "obs015-o2sat-resting",
        "effectiveDateTime": "2020-07-01",
        "status": "final",
        "category": [
          {
            "coding": [
              {
                "system": "http://terminology.hl7.org/CodeSystem/observation-category",
                "code": "vital-signs",
                "display": "Vital Signs"
              }
            ]
          },
          {
            "coding": [
              {
                "system": "http://terminology.hl7.org/CodeSystem/observation-category",
                "code": "laboratory",
                "display": "Laboratory"
              }
            ],
            "text": "Laboratory"
          }
        ],
        "code": {
          "coding": [
            {
              "system": "http://loinc.org",
              "code": "2708-6",
              "display": "Oxygen saturation in Arterial blood"
            },
            {
              "system": "http://loinc.org",
              "code": "59417-6",
              "display": "Oxygen saturation in Arterial blood by Pulse oximetry --resting"
            }
          ]
        },
        "subject": {
          "reference": "Patient/pat015"
        },
        "issued": "2020-07-01T15:30:10+01:00",
        "valueQuantity": {
          "value": 95,
          "unit": "%",
          "system": "http://unitsofmeasure.org",
          "code": "%"
        },
        "encounter": {
          "reference": "Encounter/pat015-rad-encounter"
        },
        "performer": [
          {
            "reference": "Practitioner/pra-dmorgan",
            "display": "Dexter Morgan",
            "type": "Practitioner"
          },
          {
            "reference": "Organization/org1234",
            "display": "Gulf Coast Lab",
            "type": "Organization"
          }
        ]
      },
      "request": {
        "method": "PUT",
        "url": "Observation/obs015-o2sat-resting"
      }
    },
    {
      "fullUrl": "urn:uuid:a3b3ce04-24f4-46b0-943b-3b556a5a4dfb",
      "resource": {
        "resourceType": "Observation",
        "id": "obs015-o2sat-treatment",
        "status": "final",
        "category": [
          {
            "coding": [
              {
                "system": "http://terminology.hl7.org/CodeSystem/observation-category",
                "code": "laboratory",
                "display": "Laboratory"
              }
            ],
            "text": "Laboratory"
          }
        ],
        "code": {
          "coding": [
            {
              "system": "http://loinc.org",
              "code": "59409-3",
              "display": "Oxygen saturation in Arterial blood by Pulse oximetry --during treatment"
            }
          ]
        },
        "subject": {
          "reference": "Patient/pat015"
        },
        "issued": "2020-07-01T15:30:10+01:00",
        "valueQuantity": {
          "value": 97,
          "unit": "%",
          "system": "http://unitsofmeasure.org",
          "code": "%"
        },
        "encounter": {
          "reference": "Encounter/pat015-rad-encounter"
        },
        "performer": [
          {
            "reference": "Practitioner/pra-dmorgan",
            "display": "Dexter Morgan",
            "type": "Practitioner"
          },
          {
            "reference": "Organization/org1234",
            "display": "Gulf Coast Lab",
            "type": "Organization"
          }
        ]
      },
      "request": {
        "method": "PUT",
        "url": "Observation/obs015-o2sat-treatment"
      }
    },
    {
      "fullUrl": "urn:uuid:6acbaa05-2508-488e-afc0-b52a5e53ae57",
      "resource": {
        "resourceType": "Observation",
        "id": "obs-pat015-pao2",
        "category": [
          {
            "coding": [
              {
                "system": "http://terminology.hl7.org/CodeSystem/observation-category",
                "code": "laboratory",
                "display": "Laboratory"
              }
            ],
            "text": "Laboratory"
          }
        ],
        "status": "final",
        "code": {
          "coding": [
            {
              "system": "http://loinc.org",
              "code": "2703-7",
              "display": "Oxygen [Partial pressure] in Arterial blood"
            }
          ]
        },
        "subject": {
          "reference": "Patient/pat015"
        },
        "issued": "2020-06-15T15:30:10+01:00",
        "valueQuantity": {
          "value": 65,
          "unit": "mm[Hg]",
          "system": "http://unitsofmeasure.org",
          "code": "mm[Hg]"
        },
        "interpretation": [
          {
            "coding": [
              {
                "system": "http://terminology.hl7.org/CodeSystem/v2-0078",
                "code": "L",
                "display": "LOW"
              }
            ],
            "text": "Normal (applies to non-numeric results)"
          }
        ],
        "referenceRange": [
          {
            "low": {
              "value": 75,
              "unit": "mm[Hg]",
              "system": "http://unitsofmeasure.org",
              "code": "mm[Hg]"
            },
            "high": {
              "value": 100,
              "unit": "mm[Hg]",
              "system": "http://unitsofmeasure.org",
              "code": "mm[Hg]"
            }
          }
        ]
      },
      "request": {
        "method": "PUT",
        "url": "Observation/obs-pat015-pao2"
      }
    },
    {
      "fullUrl": "urn:uuid:38470ed9-003b-47b9-bcf6-2e471a28e9ba",
      "resource": {
        "resourceType": "Observation",
        "id": "obs-pat015-o2excercise",
        "effectiveDateTime": "2020-03-20",
        "category": [
          {
            "coding": [
              {
                "system": "http://terminology.hl7.org/CodeSystem/observation-category",
                "code": "vital-signs",
                "display": "Vital Signs"
              }
            ],
            "text": "Vital Signs"
          }
        ],
        "status": "final",
        "code": {
          "coding": [
            {
              "system": "http://loinc.org",
              "code": "2708-6",
              "display": "Oxygen saturation in Arterial blood"
            },
            {
              "system": "http://loinc.org",
              "code": "89276-0",
              "display": "Oxygen saturation in Arterial blood by Pulse oximetry --W exercise"
            }
          ]
        },
        "subject": {
          "reference": "Patient/pat015"
        },
        "issued": "2020-03-20T15:30:10+01:00",
        "valueQuantity": {
          "value": 80,
          "unit": "%",
          "system": "http://unitsofmeasure.org",
          "code": "%"
        },
        "interpretation": [
          {
            "coding": [
              {
                "system": "http://terminology.hl7.org/CodeSystem/v2-0078",
                "code": "L",
                "display": "LOW"
              }
            ],
            "text": "Normal (applies to non-numeric results)"
          }
        ],
        "referenceRange": [
          {
            "low": {
              "value": 90,
              "unit": "%",
              "system": "http://unitsofmeasure.org",
              "code": "%"
            },
            "high": {
              "value": 99,
              "unit": "%",
              "system": "http://unitsofmeasure.org",
              "code": "%"
            }
          }
        ]
      },
      "request": {
        "method": "PUT",
        "url": "Observation/obs-pat015-o2excercise"
      }
    },
    {
      "fullUrl": "urn:uuid:4d9d1e76-3c37-4bff-8de0-2bbc01da4b54",
      "resource": {
        "resourceType": "Observation",
        "id": "obs015",
        "effectiveDateTime": "2020-03-20",
        "status": "final",
        "category": [
          {
            "coding": [
              {
                "system": "http://terminology.hl7.org/CodeSystem/observation-category",
                "code": "vital-signs",
                "display": "Vital Signs"
              }
            ],
            "text": "Vital Signs"
          }
        ],
        "code": {
          "coding": [
            {
              "system": "http://loinc.org",
              "code": "2708-6",
              "display": "Oxygen saturation in Arterial blood"
            },
            {
              "system": "http://loinc.org",
              "code": "59408-5",
              "display": "Oxygen saturation in Arterial blood by Pulse oximetry"
            }
          ]
        },
        "subject": {
          "reference": "Patient/pat015"
        },
        "issued": "2020-03-20T15:30:10+01:00",
        "valueQuantity": {
          "value": 91,
          "unit": "%",
          "system": "http://unitsofmeasure.org",
          "code": "%"
        },
        "interpretation": [
          {
            "coding": [
              {
                "system": "http://terminology.hl7.org/CodeSystem/v2-0078",
                "code": "N",
                "display": "Normal"
              }
            ],
            "text": "Normal (applies to non-numeric results)"
          }
        ],
        "referenceRange": [
          {
            "low": {
              "value": 90,
              "unit": "%",
              "system": "http://unitsofmeasure.org",
              "code": "%"
            },
            "high": {
              "value": 99,
              "unit": "%",
              "system": "http://unitsofmeasure.org",
              "code": "%"
            }
          }
        ]
      },
      "request": {
        "method": "PUT",
        "url": "Observation/obs015"
      }
    },
    {
      "fullUrl": "urn:uuid:b6a7ac74-a637-4040-87b6-4763de5a73bb",
      "resource": {
        "resourceType": "Observation",
        "id": "obs015-paco2",
        "status": "final",
        "category": [
          {
            "coding": [
              {
                "system": "http://terminology.hl7.org/CodeSystem/observation-category",
                "code": "laboratory",
                "display": "Laboratory"
              }
            ],
            "text": "Laboratory"
          }
        ],
        "code": {
          "coding": [
            {
              "system": "http://loinc.org",
              "code": "2019-8",
              "display": "Carbon dioxide [Partial pressure] in Arterial blood"
            }
          ]
        },
        "subject": {
          "reference": "Patient/pat015"
        },
        "issued": "2020-06-15T15:30:10+01:00",
        "valueQuantity": {
          "value": 45,
          "unit": "mm[Hg]",
          "system": "http://unitsofmeasure.org",
          "code": "mm[Hg]"
        },
        "encounter": {
          "reference": "Encounter/pat015-rad-encounter"
        },
        "performer": [
          {
            "reference": "Practitioner/pra-dmorgan",
            "display": "Dexter Morgan",
            "type": "Practitioner"
          },
          {
            "reference": "Organization/org-lab",
            "display": "Gulf Coast Lab",
            "type": "Organization"
          }
        ],
        "referenceRange": [
          {
            "low": {
              "value": 38,
              "unit": "mm[Hg]",
              "system": "http://unitsofmeasure.org",
              "code": "mm[Hg]"
            },
            "high": {
              "value": 42,
              "unit": "mm[Hg]",
              "system": "http://unitsofmeasure.org",
              "code": "mm[Hg]"
            }
          }
        ]
      },
      "request": {
        "method": "PUT",
        "url": "Observation/obs015-paco2"
      }
    },
    {
      "fullUrl": "urn:uuid:ae8690bb-520b-43f0-92cb-db07767b9dd5",
      "resource": {
        "resourceType": "Observation",
        "id": "obs015-ph",
        "status": "final",
        "category": [
          {
            "coding": [
              {
                "system": "http://terminology.hl7.org/CodeSystem/observation-category",
                "code": "laboratory",
                "display": "Laboratory"
              }
            ],
            "text": "Laboratory"
          }
        ],
        "code": {
          "coding": [
            {
              "system": "http://loinc.org",
              "code": "2744-1",
              "display": "pH of Arterial blood"
            }
          ]
        },
        "subject": {
          "reference": "Patient/pat015"
        },
        "issued": "2020-06-15T15:30:10+01:00",
        "valueQuantity": {
          "value": 7.33,
          "unit": "pH",
          "system": "http://unitsofmeasure.org",
          "code": "pH"
        },
        "encounter": {
          "reference": "Encounter/pat015-rad-encounter"
        },
        "performer": [
          {
            "reference": "Practitioner/pra-dmorgan",
            "display": "Dexter Morgan",
            "type": "Practitioner"
          },
          {
            "reference": "Organization/org-lab",
            "display": "Gulf Coast Lab",
            "type": "Organization"
          }
        ]
      },
      "request": {
        "method": "PUT",
        "url": "Observation/obs015-ph"
      }
    },
    {
      "fullUrl": "urn:uuid:8a5c465a-b8b8-423d-a73c-949e71263bd6",
      "resource": {
        "resourceType": "Observation",
        "id": "obs015B",
        "status": "final",
        "category": [
          {
            "coding": [
              {
                "system": "http://terminology.hl7.org/CodeSystem/observation-category",
                "code": "laboratory",
                "display": "laboratory"
              }
            ],
            "text": "Laboratory"
          }
        ],
        "code": {
          "coding": [
            {
              "system": "http://loinc.org",
              "code": "31100-1",
              "display": "Hematocrit [Volume Fraction] of Blood by Impedance"
            }
          ]
        },
        "subject": {
          "reference": "Patient/pat015"
        },
        "issued": "2020-03-20T15:30:10+01:00",
        "valueQuantity": {
          "value": 69,
          "unit": "%",
          "system": "http://unitsofmeasure.org",
          "code": "%"
        },
        "interpretation": [
          {
            "coding": [
              {
                "system": "http://terminology.hl7.org/CodeSystem/v2-0078",
                "code": "H",
                "display": "High"
              }
            ]
          }
        ],
        "referenceRange": [
          {
            "low": {
              "value": 42,
              "unit": "%",
              "system": "http://unitsofmeasure.org",
              "code": "%"
            },
            "high": {
              "value": 54,
              "unit": "%",
              "system": "http://unitsofmeasure.org",
              "code": "%"
            }
          }
        ]
      },
      "request": {
        "method": "PUT",
        "url": "Observation/obs015B"
      }
    },
    {
      "fullUrl": "urn:uuid:a30e788c-1773-49eb-a4d3-5b6d6fc46a61",
      "resource": {
        "resourceType": "Observation",
        "id": "pat015-hemocrit",
        "status": "final",
        "category": [
          {
            "coding": [
              {
                "system": "http://terminology.hl7.org/CodeSystem/observation-category",
                "code": "laboratory",
                "display": "laboratory"
              }
            ],
            "text": "Laboratory"
          }
        ],
        "code": {
          "coding": [
            {
              "system": "http://loinc.org",
              "code": "32354-3",
              "display": "Hct VFr BldA"
            }
          ]
        },
        "subject": {
          "reference": "Patient/pat015"
        },
        "issued": "2020-06-15T15:30:10+01:00",
        "valueQuantity": {
          "value": 72,
          "unit": "%",
          "system": "http://unitsofmeasure.org",
          "code": "%"
        }
      },
      "request": {
        "method": "PUT",
        "url": "Observation/pat015-hemocrit"
      }
    },
    {
      "fullUrl": "urn:uuid:9bdbafaa-d50d-4a45-9406-ea90058a1c49",
      "resource": {
        "resourceType": "Condition",
        "id": "cond015a",
        "clinicalStatus": {
          "coding": [
            {
              "system": "http://terminology.hl7.org/CodeSystem/condition-clinical",
              "code": "active",
              "display": "Active"
            }
          ]
        },
        "verificationStatus": {
          "coding": [
            {
              "system": "http://terminology.hl7.org/CodeSystem/condition-ver-status",
              "code": "confirmed",
              "display": "Confirmed"
            }
          ]
        },
        "category": [
          {
            "coding": [
              {
                "system": "http://terminology.hl7.org/CodeSystem/condition-category",
                "code": "encounter-diagnosis",
                "display": "Encounter Diagnosis"
              }
            ]
          }
        ],
        "code": {
          "coding": [
            {
              "system": "http://hl7.org/fhir/sid/icd-10-cm",
              "code": "J44.9",
              "display": "Chronic obstructive pulmonary disease, unspecified"
            }
          ]
        },
        "subject": {
          "reference": "Patient/pat015"
        }
      },
      "request": {
        "method": "PUT",
        "url": "Condition/cond015a"
      }
    },
    {
      "fullUrl": "urn:uuid:8deed1d5-dbc9-4ca9-b0a8-6c5464cb542f",
      "resource": {
        "resourceType": "Condition",
        "id": "cond015b",
        "clinicalStatus": {
          "coding": [
            {
              "system": "http://terminology.hl7.org/CodeSystem/condition-clinical",
              "code": "active",
              "display": "Active"
            }
          ]
        },
        "verificationStatus": {
          "coding": [
            {
              "system": "http://terminology.hl7.org/CodeSystem/condition-ver-status",
              "code": "confirmed",
              "display": "Confirmed"
            }
          ]
        },
        "category": [
          {
            "coding": [
              {
                "system": "http://terminology.hl7.org/CodeSystem/condition-category",
                "code": "encounter-diagnosis",
                "display": "Encounter Diagnosis"
              }
            ]
          }
        ],
        "code": {
          "coding": [
            {
              "system": "http://hl7.org/fhir/sid/icd-10-cm",
              "code": "R09.02",
              "display": "Hypoxemia"
            }
          ]
        },
        "subject": {
          "reference": "Patient/pat015"
        }
      },
      "request": {
        "method": "PUT",
        "url": "Condition/cond015b"
      }
    },
    {
      "fullUrl": "urn:uuid:f6fcbaea-df5f-4a7e-93b6-1dd66534006c",
      "resource": {
        "resourceType": "Condition",
        "id": "cond015c",
        "clinicalStatus": {
          "coding": [
            {
              "system": "http://terminology.hl7.org/CodeSystem/condition-clinical",
              "code": "active",
              "display": "Active"
            }
          ]
        },
        "verificationStatus": {
          "coding": [
            {
              "system": "http://terminology.hl7.org/CodeSystem/condition-ver-status",
              "code": "confirmed",
              "display": "Confirmed"
            }
          ]
        },
        "category": [
          {
            "coding": [
              {
                "system": "http://terminology.hl7.org/CodeSystem/condition-category",
                "code": "encounter-diagnosis",
                "display": "Encounter Diagnosis"
              }
            ]
          }
        ],
        "code": {
          "coding": [
            {
              "system": "http://hl7.org/fhir/sid/icd-10-cm",
              "code": "G30.0",
              "display": "Alzheimer's disease with early onset"
            }
          ]
        },
        "subject": {
          "reference": "Patient/pat015"
        }
      },
      "request": {
        "method": "PUT",
        "url": "Condition/cond015c"
      }
    },
    {
      "fullUrl": "urn:uuid:ff116f38-1eea-441b-a16b-c86cadbb1bc0",
      "resource": {
        "resourceType": "ServiceRequest",
        "id": "servreq-g0180-1",
        "status": "draft",
        "intent": "order",
        "code": {
          "coding": [
            {
              "system": "https://bluebutton.cms.gov/resources/codesystem/hcpcs",
              "code": "G0180",
              "display": "Medicare-covered home health services under a home health plan of care"
            }
          ]
        },
        "subject": {
          "reference": "Patient/pat015"
        },
        "occurrenceDateTime": "2017-10-01",
        "authoredOn": "2017-10-04",
        "requester": {
          "display": "Smythe Juliette, MD"
        },
        "performer": [
          {
            "reference": "Practitioner/pra1255"
          }
        ],
        "insurance": [
          {
            "reference": "Coverage/cov016"
          }
        ]
      },
      "request": {
        "method": "PUT",
        "url": "ServiceRequest/servreq-g0180-1"
      }
    },
    {
      "resource": {
        "resourceType": "QuestionnaireResponse",
        "id": "home-o2-questionnaireresponse",
        "meta": {
          "profile": [
            "http://hl7.org/fhir/us/davinci-dtr/StructureDefinition/dtr-questionnaireresponse"
          ]
        },
        "extension": [
          {
            "url": "http://hl7.org/fhir/us/davinci-dtr/StructureDefinition/qr-context",
            "valueReference": {
              "reference": "Coverage/cov015"
            }
          },
          {
            "url": "http://hl7.org/fhir/us/davinci-dtr/StructureDefinition/qr-context",
            "valueReference": {
              "reference": "ServiceRequest/servreq-g0180-1"
            }
          },
          {
            "url": "http://hl7.org/fhir/us/davinci-dtr/StructureDefinition/intendedUse",
            "valueCodeableConcept": {
              "coding": [
                {
                  "system": "http://hl7.org/fhir/us/davinci-crd/CodeSystem/temp",
                  "code": "withorder",
                  "display": "Include with order"
                }
              ]
            }
          }
        ],
        "questionnaire": "http://inferno.healthit.gov/reference-server/r4/Questionnaire/referred-questionnaire",
        "status": "completed",
        "subject": {
          "reference": "Patient/pat015",
          "display": "William"
        },
        "authored": "2023-08-21",
        "item": [
          {
            "linkId": "1",
            "text": "Patient Information",
            "item": [
              {
                "linkId": "1.1",
                "text": "Last Name but Different This Time",
                "answer": [
                  {
                    "extension": [
                      {
                        "extension": [
                          {
                            "url": "source",
                            "valueCode": "override"
                          },
                          {
                            "extension": [
                              {
                                "url": "role",
                                "valueCodeableConcept": {
                                  "coding": [
                                    {
                                      "system": "http://terminology.hl7.org/CodeSystem/practitioner-role",
                                      "code": "doctor",
                                      "display": "Doctor"
                                    }
                                  ]
                                }
                              },
                              {
                                "url": "practitioner",
                                "valueReference": {
                                  "reference": "Practitioner/PractitionerExample",
                                  "display": "Dr. Jane Doe"
                                }
                              }
                            ],
                            "url": "author"
                          }
                        ],
                        "url": "http://hl7.org/fhir/us/davinci-dtr/StructureDefinition/information-origin"
                      }
                    ],
                    "valueString": "Oster"
                  }
                ]
              },
              {
                "linkId": "1.2",
                "text": "First Name",
                "answer": [
                  {
                    "extension": [
                      {
                        "extension": [
                          {
                            "url": "source",
                            "valueCode": "auto"
                          }
                        ],
                        "url": "http://hl7.org/fhir/us/davinci-dtr/StructureDefinition/information-origin"
                      }
                    ],
                    "valueString": "William"
                  }
                ]
              },
              {
                "linkId": "1.3",
                "text": "Middle Initial",
                "answer": [
                  {
                    "extension": [
                      {
                        "extension": [
                          {
                            "url": "source",
                            "valueCode": "auto"
                          }
                        ],
                        "url": "http://hl7.org/fhir/us/davinci-dtr/StructureDefinition/information-origin"
                      }
                    ],
                    "valueString": "H"
                  }
                ]
              },
              {
                "linkId": "1.4",
                "text": "Date Of Birth",
                "answer": [
                  {
                    "extension": [
                      {
                        "extension": [
                          {
                            "url": "source",
                            "valueCode": "auto"
                          }
                        ],
                        "url": "http://hl7.org/fhir/us/davinci-dtr/StructureDefinition/information-origin"
                      }
                    ],
                    "valueDate": "1956-12-01"
                  }
                ]
              },
              {
                "linkId": "1.5",
                "text": "Gender",
                "answer": [
                  {
                    "extension": [
                      {
                        "extension": [
                          {
                            "url": "source",
                            "valueCode": "auto"
                          }
                        ],
                        "url": "http://hl7.org/fhir/us/davinci-dtr/StructureDefinition/information-origin"
                      }
                    ],
                    "valueCoding": {
                      "system": "http://hl7.org/fhir/administrative-gender",
                      "code": "male",
                      "display": "Male"
                    }
                  }
                ]
              },
              {
                "linkId": "1.6",
                "text": "Medicare ID",
                "answer": [
                  {
                    "extension": [
                      {
                        "extension": [
                          {
                            "url": "source",
                            "valueCode": "auto"
                          }
                        ],
                        "url": "http://hl7.org/fhir/us/davinci-dtr/StructureDefinition/information-origin"
                      }
                    ],
                    "valueString": "10A3D58WH22"
                  }
                ]
              }
            ]
          },
          {
            "linkId": "2",
            "text": "Provider who is performing face-to-face evaluation",
            "item": [
              {
                "linkId": "2.1",
                "text": "Last Name",
                "answer": [
                  {
                    "extension": [
                      {
                        "extension": [
                          {
                            "url": "source",
                            "valueCode": "auto"
                          }
                        ],
                        "url": "http://hl7.org/fhir/us/davinci-dtr/StructureDefinition/information-origin"
                      }
                    ],
                    "valueString": "Doe"
                  }
                ]
              },
              {
                "linkId": "2.2",
                "text": "First Name",
                "answer": [
                  {
                    "extension": [
                      {
                        "extension": [
                          {
                            "url": "source",
                            "valueCode": "auto"
                          }
                        ],
                        "url": "http://hl7.org/fhir/us/davinci-dtr/StructureDefinition/information-origin"
                      }
                    ],
                    "valueString": "Jane"
                  }
                ]
              },
              {
                "linkId": "2.3",
                "text": "Middle Initial",
                "answer": [
                  {
                    "extension": [
                      {
                        "extension": [
                          {
                            "url": "source",
                            "valueCode": "auto"
                          }
                        ],
                        "url": "http://hl7.org/fhir/us/davinci-dtr/StructureDefinition/information-origin"
                      }
                    ],
                    "valueString": "B"
                  }
                ]
              },
              {
                "linkId": "2.4",
                "text": "NPI",
                "answer": [
                  {
                    "extension": [
                      {
                        "extension": [
                          {
                            "url": "source",
                            "valueCode": "auto"
                          }
                        ],
                        "url": "http://hl7.org/fhir/us/davinci-dtr/StructureDefinition/information-origin"
                      }
                    ],
                    "valueString": "1122334455"
                  }
                ]
              },
              {
                "linkId": "2.5",
                "text": "Date of Face-To-Face Evaluation",
                "answer": [
                  {
                    "extension": [
                      {
                        "extension": [
                          {
                            "url": "source",
                            "valueCode": "override"
                          },
                          {
                            "extension": [
                              {
                                "url": "role",
                                "valueCodeableConcept": {
                                  "coding": [
                                    {
                                      "system": "http://terminology.hl7.org/CodeSystem/practitioner-role",
                                      "code": "doctor",
                                      "display": "Doctor"
                                    }
                                  ]
                                }
                              },
                              {
                                "url": "practitioner",
                                "valueReference": {
                                  "reference": "Practitioner/PractitionerExample",
                                  "display": "Dr. Jane Doe"
                                }
                              }
                            ],
                            "url": "author"
                          }
                        ],
                        "url": "http://hl7.org/fhir/us/davinci-dtr/StructureDefinition/information-origin"
                      }
                    ],
                    "valueDate": "2019-07-18"
                  }
                ]
              }
            ]
          },
          {
            "linkId": "3",
            "text": "Coverage Requirements",
            "item": [
              {
                "linkId": "3.1",
                "text": "Relevant Patient Diagnoses (conditions that might be expected to improve with oxygen therapy)",
                "answer": [
                  {
                    "extension": [
                      {
                        "extension": [
                          {
                            "url": "source",
                            "valueCode": "auto"
                          }
                        ],
                        "url": "http://hl7.org/fhir/us/davinci-dtr/StructureDefinition/information-origin"
                      }
                    ],
                    "valueCoding": {
                      "system": "http://snomed.info/sct",
                      "code": "313296004",
                      "display": "Mild chronic obstructive pulmonary disease"
                    }
                  },
                  {
                    "extension": [
                      {
                        "extension": [
                          {
                            "url": "source",
                            "valueCode": "auto"
                          }
                        ],
                        "url": "http://hl7.org/fhir/us/davinci-dtr/StructureDefinition/information-origin"
                      }
                    ],
                    "valueCoding": {
                      "system": "http://snomed.info/sct",
                      "code": "389087006",
                      "display": "Hypoxemia (disorder)"
                    }
                  }
                ]
              },
              {
                "linkId": "3.2",
                "text": "Arterial oxygen saturation (Patient on room air while at rest and awake when tested)",
                "answer": [
                  {
                    "extension": [
                      {
                        "extension": [
                          {
                            "url": "source",
                            "valueCode": "auto"
                          }
                        ],
                        "url": "http://hl7.org/fhir/us/davinci-dtr/StructureDefinition/information-origin"
                      }
                    ],
                    "valueQuantity": {
                      "value": 95,
                      "system": "http://unitsofmeasure.org",
                      "code": "mm[Hg]"
                    }
                  }
                ]
              },
              {
                "linkId": "3.3",
                "text": "Arterial Partial Pressure of Oxygen (PO2) (Patient on room air while at rest and awake when tested)",
                "answer": [
                  {
                    "extension": [
                      {
                        "extension": [
                          {
                            "url": "source",
                            "valueCode": "auto"
                          }
                        ],
                        "url": "http://hl7.org/fhir/us/davinci-dtr/StructureDefinition/information-origin"
                      }
                    ],
                    "valueQuantity": {
                      "value": 83,
                      "system": "http://unitsofmeasure.org",
                      "code": "mm[Hg]"
                    }
                  }
                ]
              },
              {
                "linkId": "3.4",
                "text": "Arterial oxygen saturation (Patient tested during exercise)",
                "answer": [
                  {
                    "extension": [
                      {
                        "extension": [
                          {
                            "url": "source",
                            "valueCode": "auto"
                          }
                        ],
                        "url": "http://hl7.org/fhir/us/davinci-dtr/StructureDefinition/information-origin"
                      }
                    ],
                    "valueQuantity": {
                      "value": 95,
                      "system": "http://unitsofmeasure.org",
                      "code": "mm[Hg]"
                    }
                  }
                ]
              },
              {
                "linkId": "3.5",
                "text": "Arterial Partial Pressure of Oxygen (PO2) (Patient tested during exercise)",
                "answer": [
                  {
                    "extension": [
                      {
                        "extension": [
                          {
                            "url": "source",
                            "valueCode": "auto"
                          }
                        ],
                        "url": "http://hl7.org/fhir/us/davinci-dtr/StructureDefinition/information-origin"
                      }
                    ],
                    "valueQuantity": {
                      "value": 78,
                      "system": "http://unitsofmeasure.org",
                      "code": "mm[Hg]"
                    }
                  }
                ]
              },
              {
                "linkId": "3.6",
                "text": "Is there a documented improvement of hypoxemia during exercise with oxygen?",
                "answer": [
                  {
                    "extension": [
                      {
                        "extension": [
                          {
                            "url": "source",
                            "valueCode": "auto"
                          }
                        ],
                        "url": "http://hl7.org/fhir/us/davinci-dtr/StructureDefinition/information-origin"
                      }
                    ],
                    "valueBoolean": true
                  }
                ]
              }
            ]
          },
          {
            "linkId": "4",
            "text": "Prescribed Use",
            "item": [
              {
                "linkId": "4.1",
                "text": "Start date",
                "answer": [
                  {
                    "extension": [
                      {
                        "extension": [
                          {
                            "url": "source",
                            "valueCode": "auto"
                          }
                        ],
                        "url": "http://hl7.org/fhir/us/davinci-dtr/StructureDefinition/information-origin"
                      }
                    ],
                    "valueDate": "2019-07-18"
                  }
                ]
              },
              {
                "linkId": "4.2",
                "text": "Length of need: (months) (99 = lifetime)",
                "answer": [
                  {
                    "extension": [
                      {
                        "extension": [
                          {
                            "url": "source",
                            "valueCode": "auto"
                          }
                        ],
                        "url": "http://hl7.org/fhir/us/davinci-dtr/StructureDefinition/information-origin"
                      }
                    ],
                    "valueQuantity": {
                      "value": 99
                    }
                  }
                ]
              },
              {
                "linkId": "4.3",
                "text": "Peak Flow Rate",
                "item": [
                  {
                    "linkId": "4.3.1",
                    "text": "LPM",
                    "answer": [
                      {
                        "extension": [
                          {
                            "extension": [
                              {
                                "url": "source",
                                "valueCode": "auto"
                              }
                            ],
                            "url": "http://hl7.org/fhir/us/davinci-dtr/StructureDefinition/information-origin"
                          }
                        ],
                        "valueInteger": 2
                      }
                    ]
                  },
                  {
                    "linkId": "4.3.2",
                    "text": "oxygen %",
                    "answer": [
                      {
                        "extension": [
                          {
                            "extension": [
                              {
                                "url": "source",
                                "valueCode": "auto"
                              }
                            ],
                            "url": "http://hl7.org/fhir/us/davinci-dtr/StructureDefinition/information-origin"
                          }
                        ],
                        "valueInteger": 98
                      }
                    ]
                  }
                ]
              },
              {
                "linkId": "4.4",
                "text": "Average Flow Rate",
                "item": [
                  {
                    "linkId": "4.4.1",
                    "text": "LPM",
                    "answer": [
                      {
                        "extension": [
                          {
                            "extension": [
                              {
                                "url": "source",
                                "valueCode": "auto"
                              }
                            ],
                            "url": "http://hl7.org/fhir/us/davinci-dtr/StructureDefinition/information-origin"
                          }
                        ],
                        "valueInteger": 2
                      }
                    ]
                  },
                  {
                    "linkId": "4.4.2",
                    "text": "oxygen %",
                    "answer": [
                      {
                        "extension": [
                          {
                            "extension": [
                              {
                                "url": "source",
                                "valueCode": "auto"
                              }
                            ],
                            "url": "http://hl7.org/fhir/us/davinci-dtr/StructureDefinition/information-origin"
                          }
                        ],
                        "valueInteger": 97
                      }
                    ]
                  }
                ]
              },
              {
                "linkId": "4.5",
                "text": "Frequency of use (choose all that apply)",
                "answer": [
                  {
                    "extension": [
                      {
                        "extension": [
                          {
                            "url": "source",
                            "valueCode": "auto"
                          }
                        ],
                        "url": "http://hl7.org/fhir/us/davinci-dtr/StructureDefinition/information-origin"
                      }
                    ],
                    "valueCoding": {
                      "system": "http://snomed.info/sct",
                      "code": "248218005",
                      "display": "Awake"
                    }
                  }
                ]
              }
            ]
          },
          {
            "linkId": "5",
            "text": "Oxygen Supply Order Details",
            "item": [
              {
                "linkId": "5.1",
                "text": "Current Order Description",
                "answer": [
                  {
                    "extension": [
                      {
                        "extension": [
                          {
                            "url": "source",
                            "valueCode": "auto"
                          }
                        ],
                        "url": "http://hl7.org/fhir/us/davinci-dtr/StructureDefinition/information-origin"
                      }
                    ],
                    "valueString": "HCPCS E0424 - Stationary Compressed Gaseous Oxygen System, Rental"
                  }
                ]
              },
              {
                "linkId": "5.1b",
                "text": "Current Order Is For A Portable Device"
              },
              {
                "linkId": "5.2",
                "text": "Type",
                "answer": [
                  {
                    "extension": [
                      {
                        "extension": [
                          {
                            "url": "source",
                            "valueCode": "auto"
                          }
                        ],
                        "url": "http://hl7.org/fhir/us/davinci-dtr/StructureDefinition/information-origin"
                      }
                    ],
                    "valueCoding": {
                      "system": "http://snomed.info/sct",
                      "code": "1230326008",
                      "display": "Compressed Gas"
                    }
                  }
                ]
              },
              {
                "linkId": "5.3",
                "text": "Means of oxygen delivery and accessories",
                "answer": [
                  {
                    "extension": [
                      {
                        "extension": [
                          {
                            "url": "source",
                            "valueCode": "auto"
                          }
                        ],
                        "url": "http://hl7.org/fhir/us/davinci-dtr/StructureDefinition/information-origin"
                      }
                    ],
                    "valueCoding": {
                      "system": "http://snomed.info/sct",
                      "code": "261382003",
                      "display": "Mask"
                    }
                  }
                ]
              }
            ]
          }
        ]
      },
      "request": {
        "method": "PUT",
        "url": "QuestionnaireResponse/home-o2-questionnaireresponse"
      }
    },
    {
      "resource": {
        "resourceType": "CommunicationRequest",
        "id": "communicationrequest-example1",
        "identifier": [
          {
            "system": "http://www.jurisdiction.com/insurer/123456",
            "value": "ABC123"
          }
        ],
        "basedOn": [
          {
            "display": "EligibilityRequest"
          }
        ],
        "replaces": [
          {
            "display": "prior CommunicationRequest"
          }
        ],
        "groupIdentifier": {
          "value": "12345"
        },
        "status": "draft",
        "category": [
          {
            "coding": [
              {
                "system": "http://terminology.hl7.org/CodeSystem/communication-category",
                "code": "instruction"
              }
            ]
          }
        ],
        "priority": "routine",
        "medium": [
          {
            "coding": [
              {
                "system": "http://terminology.hl7.org/CodeSystem/v3-ParticipationMode",
                "code": "WRITTEN",
                "display": "written"
              }
            ],
            "text": "written"
          }
        ],
        "subject": {
          "reference": "Patient/pat015"
        },
        "encounter": {
          "reference": "Encounter/pat015-rad-encounter"
        },
        "payload": [
          {
            "extension": [
              {
                "url": "http://hl7.org/fhir/5.0/StructureDefinition/extension-CommunicationRequest.payload.content[x]",
                "valueCodeableConcept": {
                  "coding": [
                    {
                      "system": "http://loinc.org",
                      "code": "65752-8",
                      "display": "Liver Pathology biopsy report"
                    }
                  ]
                }
              }
            ],
            "contentString": "Liver pathology biopsy report"
          }
        ],
        "occurrenceDateTime": "2016-06-10T11:01:10-08:00",
        "authoredOn": "2016-06-10T11:01:10-08:00",
        "requester": {
          "reference": "Practitioner/pra1234"
        },
        "recipient": [
          {
            "reference": "Organization/org1234"
          }
        ]
      },
      "request": {
        "method": "PUT",
        "url": "CommunicationRequest/communicationrequest-example1"
      }
    },
    {
      "resource": {
        "resourceType": "MedicationRequest",
        "id": "medicationrequest-example1",
        "contained": [
          {
            "resourceType": "Medication",
            "id": "med0320",
            "code": {
              "coding": [
                {
                  "system": "http://snomed.info/sct",
                  "code": "1145423002",
                  "display": "Azithromycin 250 mg oral tablet"
                }
              ]
            }
          }
        ],
        "identifier": [
          {
            "use": "official",
            "system": "http://www.bmc.nl/portal/prescriptions",
            "value": "12345689"
          }
        ],
        "status": "draft",
        "intent": "order",
        "medicationReference": {
          "reference": "#med0320"
        },
        "subject": {
          "reference": "Patient/pat015"
        },
        "encounter": {
          "reference": "Encounter/pat015-rad-encounter"
        },
        "authoredOn": "2015-01-15",
        "requester": {
          "reference": "Practitioner/pra1234"
        },
        "reasonCode": [
          {
            "coding": [
              {
                "system": "http://snomed.info/sct",
                "code": "11840006",
                "display": "Traveler's Diarrhea (disorder)"
              }
            ]
          }
        ],
        "insurance": [
          {
            "reference": "Coverage/cov015"
          }
        ],
        "note": [
          {
            "text": "Patient told to take with food"
          }
        ],
        "dosageInstruction": [
          {
            "sequence": 1,
            "text": "Two tablets at once",
            "additionalInstruction": [
              {
                "coding": [
                  {
                    "system": "http://snomed.info/sct",
                    "code": "311504000",
                    "display": "With or after food"
                  }
                ]
              }
            ],
            "timing": {
              "repeat": {
                "frequency": 1,
                "period": 1,
                "periodUnit": "d"
              }
            },
            "route": {
              "coding": [
                {
                  "system": "http://snomed.info/sct",
                  "code": "26643006",
                  "display": "Oral Route"
                }
              ]
            },
            "method": {
              "coding": [
                {
                  "system": "http://snomed.info/sct",
                  "code": "421521009",
                  "display": "Swallow - dosing instruction imperative (qualifier value)"
                }
              ]
            },
            "doseAndRate": [
              {
                "type": {
                  "coding": [
                    {
                      "system": "http://terminology.hl7.org/CodeSystem/dose-rate-type",
                      "code": "ordered",
                      "display": "Ordered"
                    }
                  ]
                },
                "doseQuantity": {
                  "value": 2,
                  "unit": "TAB",
                  "system": "http://terminology.hl7.org/CodeSystem/v3-orderableDrugForm",
                  "code": "TAB"
                }
              }
            ]
          },
          {
            "sequence": 2,
            "text": "One tablet daily for 4 days",
            "additionalInstruction": [
              {
                "coding": [
                  {
                    "system": "http://snomed.info/sct",
                    "code": "311504000",
                    "display": "With or after food"
                  }
                ]
              }
            ],
            "timing": {
              "repeat": {
                "frequency": 4,
                "period": 1,
                "periodUnit": "d"
              }
            },
            "route": {
              "coding": [
                {
                  "system": "http://snomed.info/sct",
                  "code": "26643006",
                  "display": "Oral Route"
                }
              ]
            },
            "doseAndRate": [
              {
                "type": {
                  "coding": [
                    {
                      "system": "http://terminology.hl7.org/CodeSystem/dose-rate-type",
                      "code": "ordered",
                      "display": "Ordered"
                    }
                  ]
                },
                "doseQuantity": {
                  "value": 1,
                  "unit": "TAB",
                  "system": "http://terminology.hl7.org/CodeSystem/v3-orderableDrugForm",
                  "code": "TAB"
                }
              }
            ]
          }
        ],
        "dispenseRequest": {
          "validityPeriod": {
            "start": "2015-01-15",
            "end": "2016-01-15"
          },
          "numberOfRepeatsAllowed": 1,
          "quantity": {
            "value": 6,
            "unit": "TAB",
            "system": "http://terminology.hl7.org/CodeSystem/v3-orderableDrugForm",
            "code": "TAB"
          },
          "expectedSupplyDuration": {
            "value": 5,
            "unit": "days",
            "system": "http://unitsofmeasure.org",
            "code": "d"
          }
        },
        "substitution": {
          "allowedBoolean": true,
          "reason": {
            "coding": [
              {
                "system": "http://terminology.hl7.org/CodeSystem/v3-ActReason",
                "code": "FP",
                "display": "formulary policy"
              }
            ]
          }
        }
      },
      "request": {
        "method": "PUT",
        "url": "MedicationRequest/medicationrequest-example1"
      }
    },
    {
      "resource": {
        "resourceType": "NutritionOrder",
        "id": "nutritionorder-example1",
        "identifier": [
          {
            "system": "http://goodhealthhospital.org/nutrition-requests",
            "value": "123"
          }
        ],
        "status": "draft",
        "intent": "order",
        "patient": {
          "reference": "Patient/pat015"
        },
        "encounter": {
          "reference": "Encounter/pat015-rad-encounter"
        },
        "dateTime": "2014-09-17",
        "orderer": {
          "reference": "Practitioner/pra1234"
        },
        "allergyIntolerance": [
          {
            "reference": "AllergyIntolerance/allergyintolerance-example1",
            "display": "Cashew Nuts"
          }
        ],
        "foodPreferenceModifier": [
          {
            "coding": [
              {
                "system": "http://terminology.hl7.org/CodeSystem/diet",
                "code": "dairy-free"
              }
            ]
          }
        ],
        "excludeFoodModifier": [
          {
            "coding": [
              {
                "system": "http://snomed.info/sct",
                "code": "227493005",
                "display": "Cashew Nut"
              }
            ]
          }
        ],
        "oralDiet": {
          "type": [
            {
              "coding": [
                {
                  "system": "http://snomed.info/sct",
                  "code": "15108003",
                  "display": "Restricted fiber diet"
                }
              ],
              "text": "Fiber restricted diet"
            },
            {
              "coding": [
                {
                  "system": "http://snomed.info/sct",
                  "code": "16208003",
                  "display": "Low fat diet"
                }
              ],
              "text": "Low fat diet"
            }
          ],
          "schedule": [
            {
              "repeat": {
                "boundsPeriod": {
                  "start": "2015-02-10"
                },
                "frequency": 3,
                "period": 1,
                "periodUnit": "d"
              }
            }
          ],
          "nutrient": [
            {
              "modifier": {
                "coding": [
                  {
                    "system": "http://snomed.info/sct",
                    "code": "256674009",
                    "display": "Fat"
                  }
                ]
              },
              "amount": {
                "value": 50,
                "unit": "grams",
                "system": "http://unitsofmeasure.org",
                "code": "g"
              }
            }
          ]
        }
      },
      "request": {
        "method": "PUT",
        "url": "NutritionOrder/nutritionorder-example1"
      }
    },
    {
      "resource": {
        "resourceType": "Task",
        "id": "cdex-task-example19",
        "meta": {
          "profile": [
            "http://hl7.org/fhir/us/davinci-cdex/StructureDefinition/cdex-task-attachment-request"
          ]
        },
        "contained": [
          {
            "resourceType": "Patient",
            "id": "patient",
            "meta": {
              "profile": [
                "http://hl7.org/fhir/us/davinci-cdex/StructureDefinition/cdex-patient-demographics"
              ]
            },
            "identifier": [
              {
                "use": "usual",
                "type": {
                  "coding": [
                    {
                      "system": "http://hl7.org/fhir/us/davinci-hrex/CodeSystem/hrex-temp",
                      "code": "UMB"
                    }
                  ],
                  "text": "Member Number"
                },
                "system": "http://inferno.healthit.gov/reference-server/r4/cdex/payer/member-ids",
                "value": "Member123"
              }
            ],
            "name": [
              {
                "family": "Shaw",
                "given": ["Amy"]
              }
            ],
            "birthDate": "1987-02-20"
          },
          {
            "resourceType": "PractitionerRole",
            "id": "practitionerrole",
            "meta": {
              "profile": [
                "http://hl7.org/fhir/us/davinci-cdex/StructureDefinition/cdex-practitionerrole"
              ]
            },
            "practitioner": {
              "identifier": {
                "system": "http://hl7.org/fhir/sid/us-npi",
                "value": "9941339100"
              }
            },
            "organization": {
              "identifier": {
                "system": "http://hl7.org/fhir/sid/us-npi",
                "value": "1234567893"
              }
            }
          }
        ],
        "identifier": [
          {
            "type": {
              "coding": [
                {
                  "system": "http://hl7.org/fhir/us/davinci-cdex/CodeSystem/cdex-temp",
                  "code": "tracking-id",
                  "display": "Tracking Id"
                }
              ],
              "text": "Re-Association Tracking Control Number"
            },
            "system": "http://inferno.healthit.gov/reference-server/r4/payer",
            "value": "trackingid123"
          }
        ],
        "status": "requested",
        "intent": "order",
        "code": {
          "coding": [
            {
              "system": "http://hl7.org/fhir/us/davinci-cdex/CodeSystem/cdex-temp",
              "code": "attachment-request-code"
            }
          ],
          "text": "Coded Attachment Request"
        },
        "for": {
          "reference": "#patient"
        },
        "authoredOn": "2022-06-17T16:16:06Z",
        "lastModified": "2022-06-17T16:16:06Z",
        "requester": {
          "identifier": {
            "system": "http://inferno.healthit.gov/reference-server/r4/cdex/payer/payer-ids",
            "value": "Payer123"
          }
        },
        "owner": {
          "reference": "#practitionerrole"
        },
        "reasonCode": {
          "coding": [
            {
              "system": "http://hl7.org/fhir/claim-use",
              "code": "claim",
              "display": "Claim"
            }
          ],
          "text": "claim"
        },
        "reasonReference": {
          "identifier": {
            "system": "http://inferno.healthit.gov/r4/reference-server/r4/cdex/payer/claim-ids",
            "value": "Claim123"
          }
        },
        "restriction": {
          "period": {
            "end": "2022-06-21"
          }
        },
        "input": [
          {
            "extension": [
              {
                "url": "http://hl7.org/fhir/us/davinci-pas/StructureDefinition/extension-serviceLineNumber",
                "valuePositiveInt": 1
              }
            ],
            "type": {
              "coding": [
                {
                  "system": "http://hl7.org/fhir/us/davinci-hrex/CodeSystem/hrex-temp",
                  "code": "data-code"
                }
              ]
            },
            "valueCodeableConcept": {
              "coding": [
                {
                  "system": "http://loinc.org",
                  "code": "11506-3",
                  "display": "Progress note"
                }
              ],
              "text": "Progress note"
            }
          },
          {
            "type": {
              "coding": [
                {
                  "system": "http://hl7.org/fhir/us/davinci-cdex/CodeSystem/cdex-temp",
                  "code": "signature-flag"
                }
              ]
            },
            "valueBoolean": true
          },
          {
            "type": {
              "coding": [
                {
                  "system": "http://hl7.org/fhir/us/davinci-cdex/CodeSystem/cdex-temp",
                  "code": "payer-url"
                }
              ]
            },
            "valueUrl": "http://inferno.healthit.gov/reference-server/r4/cdex/payer/$submit-attachment"
          },
          {
            "type": {
              "coding": [
                {
                  "system": "http://hl7.org/fhir/us/davinci-cdex/CodeSystem/cdex-temp",
                  "code": "service-date"
                }
              ]
            },
            "valueDate": "2022-06-13"
          },
          {
            "type": {
              "coding": [
                {
                  "system": "http://hl7.org/fhir/us/davinci-cdex/CodeSystem/cdex-temp",
                  "code": "purpose-of-use"
                }
              ]
            },
            "valueCodeableConcept": {
              "coding": [
                {
                  "system": "http://terminology.hl7.org/CodeSystem/v3-ActReason",
                  "code": "CLMATTCH",
                  "display": "claim attachment"
                }
              ]
            }
          }
        ]
      },
      "request": {
        "method": "PUT",
        "url": "Task/cdex-task-example19"
      }
    },
    {
      "resource": {
        "resourceType": "VisionPrescription",
        "id": "visionprescription-example1",
        "identifier": [
          {
            "system": "http://www.happysight.com/prescription",
            "value": "15013"
          }
        ],
        "status": "draft",
        "created": "2014-06-15",
        "patient": {
          "reference": "Patient/pat015"
        },
        "dateWritten": "2014-06-15",
        "prescriber": {
          "reference": "Practitioner/pra1234"
        },
        "lensSpecification": [
          {
            "product": {
              "coding": [
                {
                  "system": "http://terminology.hl7.org/CodeSystem/ex-visionprescriptionproduct",
                  "code": "lens"
                }
              ]
            },
            "eye": "right",
            "sphere": -2,
            "prism": [
              {
                "amount": 0.5,
                "base": "down"
              }
            ],
            "add": 2
          },
          {
            "product": {
              "coding": [
                {
                  "system": "http://terminology.hl7.org/CodeSystem/ex-visionprescriptionproduct",
                  "code": "lens"
                }
              ]
            },
            "eye": "left",
            "sphere": -1,
            "cylinder": -0.5,
            "axis": 180,
            "prism": [
              {
                "amount": 0.5,
                "base": "up"
              }
            ],
            "add": 2
          }
        ]
      },
      "request": {
        "method": "PUT",
        "url": "VisionPrescription/visionprescription-example1"
      }
    },
    {
      "resource": {
        "resourceType": "VisionPrescription",
        "id": "visionprescription-example2",
        "identifier": [
          {
            "system": "http://www.happysight.com/prescription",
            "value": "15013"
          }
        ],
        "status": "draft",
        "created": "2014-06-15",
        "patient": {
          "reference": "Patient/pat015"
        },
        "dateWritten": "2014-06-15",
        "prescriber": {
          "reference": "Practitioner/pra1234"
        },
        "lensSpecification": [
          {
            "product": {
              "coding": [
                {
                  "system": "http://terminology.hl7.org/CodeSystem/ex-visionprescriptionproduct",
                  "code": "lens"
                }
              ]
            },
            "eye": "right",
            "sphere": -2,
            "prism": [
              {
                "amount": 0.5,
                "base": "down"
              }
            ],
            "add": 2
          },
          {
            "product": {
              "coding": [
                {
                  "system": "http://terminology.hl7.org/CodeSystem/ex-visionprescriptionproduct",
                  "code": "lens"
                }
              ]
            },
            "eye": "left",
            "sphere": -1,
            "cylinder": -0.5,
            "axis": 180,
            "prism": [
              {
                "amount": 0.5,
                "base": "up"
              }
            ],
            "add": 2
          }
        ]
      },
      "request": {
        "method": "PUT",
        "url": "VisionPrescription/visionprescription-example2"
      }
    },
    {
      "resource": {
        "resourceType": "AllergyIntolerance",
        "id": "allergyintolerance-example1",
        "meta": {
          "profile": [
            "http://hl7.org/fhir/us/core/StructureDefinition/us-core-allergyintolerance"
          ]
        },
        "clinicalStatus": {
          "coding": [
            {
              "system": "http://terminology.hl7.org/CodeSystem/allergyintolerance-clinical",
              "code": "inactive"
            }
          ]
        },
        "verificationStatus": {
          "coding": [
            {
              "system": "http://terminology.hl7.org/CodeSystem/allergyintolerance-verification",
              "code": "confirmed"
            }
          ]
        },
        "type": "allergy",
        "category": ["food"],
        "criticality": "low",
        "code": {
          "coding": [
            {
              "system": "http://snomed.info/sct",
              "code": "300916003",
              "display": "Latex allergy"
            }
          ],
          "text": "Latex allergy"
        },
        "patient": {
          "reference": "Patient/pat015"
        },
        "recordedDate": "1941-10-14T18:33:18-05:00",
        "reaction": [
          {
            "manifestation": [
              {
                "coding": [
                  {
                    "system": "http://snomed.info/sct",
                    "code": "271807003",
                    "display": "skin rash"
                  }
                ],
                "text": "skin rash"
              }
            ]
          }
        ]
      },
      "request": {
        "method": "PUT",
        "url": "AllergyIntolerance/allergyintolerance-example1"
      }
    }
  ],
  "resourceType": "Bundle"
}
